"Time (s)","Acceleration x (m/s^2)","Acceleration y (m/s^2)","Acceleration z (m/s^2)","Absolute acceleration (m/s^2)"
-7.823749911E-4,-2.028431854E0,3.412154388E0,8.968000946E0,9.807261306E0
9.167625001E-3,-2.082170105E0,3.461701355E0,8.964857483E0,9.832979117E0
1.911662500E-2,-2.094893646E0,3.474574585E0,8.987909546E0,9.861225377E0
2.906662501E-2,-2.117945709E0,3.470832367E0,8.974736938E0,9.852830784E0
3.901562501E-2,-2.119891663E0,3.504362640E0,8.942104797E0,9.835432699E0
4.896562500E-2,-2.096091156E0,3.477418671E0,8.969647522E0,9.845842545E0
5.891562501E-2,-2.027084656E0,3.364553375E0,9.017996979E0,9.836338807E0
6.886462501E-2,-2.002685394E0,3.308869171E0,9.047186279E0,9.839255234E0
7.881462500E-2,-2.005230103E0,3.383264465E0,9.037007446E0,9.855705444E0
8.876362500E-2,-2.045496368E0,3.462599487E0,9.054071960E0,9.907061606E0
9.871362500E-2,-2.093995514E0,3.471580811E0,9.044342194E0,9.911448746E0
1.086626250E-1,-2.124532013E0,3.439248047E0,9.046886902E0,9.908997226E0
1.186126250E-1,-2.111808472E0,3.430566101E0,9.051826630E0,9.907778970E0
1.285616250E-1,-2.094145203E0,3.426225128E0,9.104816437E0,9.950987142E0
1.385116250E-1,-2.061662750E0,3.382815399E0,9.136849823E0,9.958710660E0
1.484606250E-1,-2.068698120E0,3.377725983E0,9.169332275E0,9.988253056E0
1.584106250E-1,-2.100432129E0,3.401526489E0,9.150621185E0,9.985793191E0
1.683606250E-1,-2.095043335E0,3.408262482E0,9.126072235E0,9.964469587E0
1.783096250E-1,-2.087409210E0,3.408112793E0,9.110055542E0,9.948146661E0
1.882596250E-1,-2.040706329E0,3.389252014E0,9.094637604E0,9.917859884E0
1.982086250E-1,-1.993404694E0,3.366948395E0,9.083261261E0,9.890178911E0
2.081586250E-1,-1.969005432E0,3.359014893E0,9.048982544E0,9.851093773E0
2.181076250E-1,-1.943558350E0,3.310964813E0,9.033265228E0,9.815283375E0
2.280576250E-1,-1.926942902E0,3.297792206E0,9.021888885E0,9.797092499E0
2.380066250E-1,-1.953437805E0,3.307971039E0,9.036109314E0,9.818852437E0
2.479566250E-1,-2.013762360E0,3.312162323E0,9.035061493E0,9.831479760E0
2.579056250E-1,-2.074386292E0,3.328927460E0,9.047036591E0,9.860715369E0
2.678556250E-1,-2.132465515E0,3.348985748E0,9.074279938E0,9.904830695E0
2.778056250E-1,-2.123035126E0,3.359314270E0,9.085057526E0,9.916175712E0
2.877546250E-1,-2.084116058E0,3.304378510E0,9.136700134E0,9.936888166E0
2.977046250E-1,-1.995051270E0,3.203488312E0,9.187294922E0,9.932218026E0
3.076536250E-1,-1.886526947E0,3.115621033E0,9.235345001E0,9.927621852E0
3.176036250E-1,-1.848206635E0,3.096161499E0,9.243727570E0,9.922125940E0
3.275526250E-1,-1.853445740E0,3.096610565E0,9.237590332E0,9.917526569E0
3.375026250E-1,-1.797162781E0,3.035836945E0,9.262139282E0,9.911272577E0
3.474516250E-1,-1.740879822E0,2.969075775E0,9.283245392E0,9.900743332E0
3.574016250E-1,-1.695224762E0,2.980003052E0,9.332642670E0,9.942455651E0
3.673516250E-1,-1.634002075E0,3.019371185E0,9.267079010E0,9.882576512E0
3.773006250E-1,-1.616937561E0,3.017125854E0,9.257199554E0,9.869816568E0
3.872506250E-1,-1.634002075E0,2.966082001E0,9.275162201E0,9.874018385E0
3.971996250E-1,-1.668879547E0,2.932402039E0,9.277257843E0,9.871760418E0
4.071496250E-1,-1.673070831E0,2.905757446E0,9.275611267E0,9.863039933E0
4.170986250E-1,-1.656904449E0,2.880460052E0,9.296567688E0,9.872616332E0
4.270486250E-1,-1.680704956E0,2.892884216E0,9.349108429E0,9.929721882E0
4.369976250E-1,-1.652413788E0,2.935695190E0,9.347611542E0,9.936126967E0
4.469476250E-1,-1.638941803E0,2.974464569E0,9.271869049E0,9.874265814E0
4.568966250E-1,-1.676214294E0,3.009491730E0,9.217382355E0,9.840064649E0
4.668466250E-1,-1.660047913E0,2.987337799E0,9.166637878E0,9.783005478E0
4.767966250E-1,-1.600172424E0,2.957549744E0,9.130712585E0,9.730239699E0
4.867456250E-1,-1.581910400E0,2.972668304E0,9.109456787E0,9.711920527E0
4.966956250E-1,-1.577120361E0,2.979703674E0,9.147477722E0,9.748963601E0
5.066446250E-1,-1.552122345E0,2.975811768E0,9.199868774E0,9.792963030E0
5.165946250E-1,-1.531614990E0,2.958447876E0,9.198521576E0,9.783202824E0
5.265436250E-1,-1.538800049E0,2.907104645E0,9.231902161E0,9.800366346E0
5.364936250E-1,-1.601669312E0,2.910098419E0,9.296867065E0,9.872474595E0
5.464426250E-1,-1.629661102E0,2.990481262E0,9.331744537E0,9.933792307E0
5.563957500E-1,-1.648970947E0,3.033890991E0,9.356143799E0,9.973014916E0
5.663447500E-1,-1.649569702E0,2.994522858E0,9.379644928E0,9.983285347E0
5.762947500E-1,-1.635498962E0,2.965183868E0,9.434281311E0,1.002361392E1
5.862447500E-1,-1.614243164E0,2.956801300E0,9.473799133E0,1.005491546E1
5.961937500E-1,-1.591191101E0,2.981499939E0,9.559870148E0,1.013964241E1
6.061437500E-1,-1.578168182E0,3.033591614E0,9.630223846E0,1.021932014E1
6.160927500E-1,-1.550775146E0,3.080294495E0,9.648934937E0,1.024670987E1
6.260427500E-1,-1.538800049E0,3.107238464E0,9.678573303E0,1.028093467E1
6.359917500E-1,-1.567091217E0,3.147355042E0,9.649384003E0,1.026996739E1
6.459417500E-1,-1.599573669E0,3.213068390E0,9.576335907E0,1.022685943E1
6.558907500E-1,-1.602717133E0,3.230432281E0,9.501491547E0,1.016281145E1
6.658407500E-1,-1.582060089E0,3.212918701E0,9.381890259E0,1.004219227E1
6.757907500E-1,-1.610950012E0,3.230282593E0,9.309740295E0,9.985046316E0
6.857397500E-1,-1.622625732E0,3.248694305E0,9.269623718E0,9.955543824E0
6.956897500E-1,-1.521735535E0,3.237168274E0,9.234147491E0,9.902747970E0
7.056387500E-1,-1.480720825E0,3.225342865E0,9.258097687E0,9.915026149E0
7.155887500E-1,-1.489253082E0,3.238365784E0,9.260193329E0,9.922503121E0
7.255377500E-1,-1.562750244E0,3.259322205E0,9.257199554E0,9.937862605E0
7.354877500E-1,-1.687440948E0,3.295247498E0,9.236243134E0,9.950592960E0
7.454367500E-1,-1.762884064E0,3.341351624E0,9.220675507E0,9.964599726E0
7.553867500E-1,-1.744172974E0,3.357518005E0,9.252409515E0,9.996106660E0
7.653357500E-1,-1.672921143E0,3.343297577E0,9.333840179E0,1.005469424E1
7.752857500E-1,-1.582658844E0,3.322041779E0,9.353898468E0,1.005167584E1
7.852357500E-1,-1.603615265E0,3.286715240E0,9.381291504E0,1.006889812E1
7.951847500E-1,-1.746118927E0,3.271297302E0,9.446555786E0,1.014828722E1
8.051347500E-1,-1.942959595E0,3.313659210E0,9.276060333E0,1.003995641E1
8.150837500E-1,-2.210153961E0,3.395538940E0,9.292526093E0,1.013733231E1
8.250337500E-1,-2.567460938E0,3.485801239E0,9.666448517E0,1.059164260E1
8.349827500E-1,-3.011287994E0,3.601959686E0,1.017179764E1,1.120301014E1
8.449327500E-1,-3.503314819E0,3.732637939E0,1.042746597E1,1.161627511E1
8.548817500E-1,-3.873794403E0,3.865711212E0,1.077204941E1,1.208251028E1
8.648317500E-1,-4.292024689E0,4.041894836E0,1.131077911E1,1.275508189E1
8.747807500E-1,-4.297263794E0,4.067641296E0,1.190579178E1,1.329511413E1
8.847307500E-1,-3.238964539E0,3.151845703E0,1.222073685E1,1.302963667E1
8.946807500E-1,-1.546733551E0,2.651735687E0,1.296962952E1,1.332799222E1
9.046297500E-1,3.885919189E-1,2.507286072E0,1.413959656E1,1.436543344E1
9.145797500E-1,2.111209717E0,3.387006683E0,1.383632721E1,1.440045039E1
9.245287500E-1,3.491788788E0,2.876119080E0,1.275916718E1,1.353739254E1
9.344787500E-1,3.290457458E0,1.428479462E0,1.221834183E1,1.273403082E1
9.444277500E-1,2.587968292E0,4.153862000E-1,1.196417038E1,1.224791813E1
9.543777500E-1,1.739682312E0,-3.427871704E-1,1.108085724E1,1.122182671E1
9.643267500E-1,7.511380005E-1,-8.806187439E-1,9.959239655E0,1.002627309E1
9.742767500E-1,-1.287322998E-2,-1.234632568E0,9.113947449E0,9.197201824E0
9.842257500E-1,-5.739065552E-1,-1.336420898E0,8.205187225E0,8.333095881E0
9.941757500E-1,-7.213499451E-1,-1.155596924E0,7.307503967E0,7.433395202E0
1.004125750E0,-7.535330200E-1,-6.930587769E-1,6.290818176E0,6.373581082E0
1.014074750E0,-1.072519684E0,-1.315763855E-1,5.465733948E0,5.571522091E0
1.024024750E0,-1.611548767E0,3.329077148E-1,4.661157074E0,4.943106538E0
1.033973750E0,-4.021836548E0,3.300636292E-1,3.224295044E0,5.165286996E0
1.043923750E0,-1.307216629E1,-1.161434784E0,3.650309143E0,1.362186548E1
1.053872750E0,-1.860376328E1,-2.152074738E0,4.777614899E0,1.932762370E1
1.063822750E0,-1.026819717E1,8.996292114E-2,4.742887115E0,1.131100989E1
1.073771750E0,-1.008901978E-1,1.587149506E0,5.745801544E0,5.961833424E0
1.083721750E0,1.600771179E0,1.660197601E0,7.160659332E0,7.522882859E0
1.093670750E0,2.189945984E-1,4.129911804E-1,9.107510834E0,9.119499654E0
1.103620750E0,-8.831634521E-1,-3.890409851E-1,8.180787964E0,8.237513113E0
1.113570750E0,-1.235081635E0,-2.869532776E-1,7.253915405E0,7.363902331E0
1.123519750E0,-9.166937256E-1,-4.402345276E-1,7.498357086E0,7.567000252E0
1.133469750E0,-2.454895020E-1,-7.571255493E-1,8.296946411E0,8.335035929E0
1.143418750E0,5.619314575E-1,-8.122109985E-1,7.674241333E0,7.737534084E0
1.153368750E0,1.614243164E0,-8.045768738E-1,5.893993378E0,6.163788030E0
1.163317750E0,2.708018646E0,-9.033714294E-1,5.156776428E0,5.894216492E0
1.173267750E0,4.136498108E0,-1.236428833E0,6.572981415E0,7.864061135E0
1.183216750E0,4.995411987E0,-1.344953156E0,7.186705170E0,8.855042129E0
1.193166750E0,5.766009521E0,-1.241967316E0,8.096363525E0,1.001700808E1
1.203116750E0,6.783144379E0,-9.279203796E-1,8.824599152E0,1.116895850E1
1.213065750E0,7.663763123E0,-8.825646973E-1,8.372688904E0,1.138481906E1
1.223015750E0,7.777227173E0,-1.217118988E0,6.583459625E0,1.026199697E1
1.232964750E0,7.653284912E0,-1.607058105E0,5.544769592E0,9.586442277E0
1.242914750E0,7.380402374E0,-1.400637360E0,5.843398590E0,9.517217624E0
1.252863750E0,6.382727051E0,-4.764591980E-1,6.560407562E0,9.165433179E0
1.262813750E0,5.970184937E0,5.087919617E-1,6.710245972E0,8.996075724E0
1.272762750E0,7.103478241E0,-1.447639618E0,6.806196442E0,9.943810818E0
1.282712750E0,7.912695465E0,-2.953957214E0,6.153254242E0,1.044983974E1
1.292661750E0,8.265661469E0,-2.114951935E0,5.464835815E0,1.013205861E1
1.302611750E0,7.957751770E0,-1.070573730E0,5.143903198E0,9.535810477E0
1.312561750E0,7.698341217E0,-1.872605896E-1,5.263354797E0,9.327509193E0
1.322510750E0,7.238497467E0,-1.948947144E-1,5.457052002E0,9.067152038E0
1.332460750E0,5.426365814E0,-1.031954041E0,6.405479736E0,8.458164443E0
1.342409750E0,2.296075287E0,-2.232307892E0,7.680228882E0,8.321122276E0
1.352359750E0,-5.525010681E-1,-3.919898529E0,8.139174500E0,9.050802365E0
1.362308750E0,-1.006057892E0,-6.085295563E0,6.570436707E0,9.011859580E0
1.372258750E0,1.121467896E0,-7.279811554E0,3.994293823E0,8.379005290E0
1.382207750E0,4.558470612E0,-5.933960266E0,3.606150970E0,8.306374876E0
1.392157750E0,8.512348480E0,-4.043391724E0,5.638175354E0,1.098171729E1
1.402106750E0,9.893226929E0,-3.836970978E0,8.066126404E0,1.332894146E1
1.412056750E0,9.270970917E0,-4.227209473E0,8.574020233E0,1.331668219E1
1.422006750E0,8.717122650E0,-4.122127991E0,8.205636292E0,1.266146253E1
1.431955750E0,8.760682068E0,-3.624862061E0,8.553213501E0,1.276897163E1
1.441905750E0,8.977581024E0,-3.377725983E0,9.109905853E0,1.322861968E1
1.451854750E0,9.354946289E0,-3.625011749E0,9.086554413E0,1.353592263E1
1.461804750E0,9.875264282E0,-4.033961334E0,8.931476898E0,1.391276278E1
1.471753750E0,1.050141220E1,-4.328548737E0,8.900940399E0,1.443061788E1
1.481703750E0,1.120988892E1,-4.445156250E0,9.085506592E0,1.509859111E1
1.491652750E0,1.183588715E1,-4.531077576E0,9.564660187E0,1.587770805E1
1.501602750E0,1.242790604E1,-4.602329407E0,9.947414246E0,1.657061660E1
1.511551750E0,1.284239410E1,-4.721331940E0,1.019215530E1,1.706159698E1
1.521501750E0,1.300435730E1,-4.586761780E0,1.024783951E1,1.718050951E1
1.531451750E0,1.301154236E1,-4.267625427E0,9.943522339E0,1.692295772E1
1.541400750E0,1.264555344E1,-4.190835114E0,9.533824310E0,1.638190852E1
1.551350750E0,1.185040695E1,-4.548441467E0,9.277557220E0,1.572238953E1
1.561296500E0,1.163889679E1,-4.372257843E0,8.979676666E0,1.533672554E1
1.571246500E0,1.205922272E1,-3.693718872E0,8.554710388E0,1.523979926E1
1.581195500E0,1.217148926E1,-3.211721191E0,8.496481476E0,1.518718214E1
1.591145500E0,1.221938965E1,-2.793490906E0,8.458610229E0,1.512167854E1
1.601094500E0,1.230381409E1,-2.548300781E0,8.797355804E0,1.533855101E1
1.611044500E0,1.234632568E1,-2.516117706E0,8.934320984E0,1.544618716E1
1.620994500E0,1.215262848E1,-2.314037933E0,8.585845642E0,1.505848252E1
1.630943500E0,1.174143356E1,-2.265089722E0,8.328979797E0,1.457270730E1
1.640893500E0,1.120180573E1,-2.887794800E0,8.029752045E0,1.408178711E1
1.650842500E0,1.062161224E1,-3.408561859E0,7.773335266E0,1.359638488E1
1.660792500E0,1.046608566E1,-3.407963104E0,7.731871490E0,1.345120806E1
1.670741500E0,1.049707123E1,-3.271896057E0,7.625293121E0,1.338054197E1
1.680691500E0,1.034259247E1,-3.224145355E0,7.438481598E0,1.314135993E1
1.690640500E0,1.009964767E1,-3.078348541E0,7.185807037E0,1.277164577E1
1.700590500E0,9.938881989E0,-2.850073242E0,6.788533173E0,1.236885101E1
1.710539500E0,9.729617157E0,-2.635868683E0,6.165678406E0,1.181646495E1
1.720489500E0,9.678124237E0,-2.280956726E0,5.929469604E0,1.157702303E1
1.730439500E0,9.655820618E0,-2.023342438E0,5.671705627E0,1.137967623E1
1.740388500E0,9.795330505E0,-2.049987030E0,5.338797913E0,1.134256187E1
1.750338500E0,9.825567627E0,-2.301913147E0,5.020859070E0,1.127162850E1
1.760287500E0,9.679770813E0,-2.639461212E0,4.820725250E0,1.113122232E1
1.770237500E0,9.360634460E0,-3.179238739E0,4.620441742E0,1.091226458E1
1.780186500E0,8.760233002E0,-3.739074554E0,4.407285004E0,1.049507131E1
1.790136500E0,8.088280334E0,-3.976780243E0,4.434079285E0,1.004470602E1
1.800085500E0,7.715405731E0,-3.942800903E0,4.399800568E0,9.717582497E0
1.810035500E0,7.934699707E0,-3.490740967E0,4.032913513E0,9.560811856E0
1.819985500E0,8.332422638E0,-3.075654144E0,3.761228485E0,9.645504401E0
1.829934500E0,8.439899139E0,-3.051404572E0,3.546125793E0,9.649765566E0
1.839884500E0,8.381370850E0,-3.248993683E0,3.213068390E0,9.546053936E0
1.849833500E0,8.277935944E0,-3.419489136E0,2.962788849E0,9.433729231E0
1.859783500E0,8.124205627E0,-3.580404510E0,2.694396973E0,9.278027192E0
1.869732500E0,7.982300720E0,-3.484454041E0,2.209255829E0,8.985508114E0
1.879682500E0,7.905809784E0,-3.154540100E0,1.660347290E0,8.672352893E0
1.889631500E0,8.021369476E0,-2.850522308E0,1.175655212E0,8.593602905E0
1.899581500E0,8.169561310E0,-2.604733429E0,7.628137207E-1,8.608615046E0
1.909530500E0,8.282426605E0,-2.481389923E0,4.857398987E-1,8.659782311E0
1.919480500E0,8.440647583E0,-2.502196655E0,3.603007507E-1,8.811091666E0
1.929430500E0,8.551417236E0,-2.455942841E0,2.287243652E-1,8.900039709E0
1.939379500E0,8.541837158E0,-2.401306458E0,7.409591675E-2,8.873260108E0
1.949329500E0,8.511899414E0,-2.521656189E0,1.149609375E-1,8.878310514E0
1.959278500E0,8.361911316E0,-2.753224640E0,3.055146790E-1,8.808810702E0
1.969228500E0,8.025261383E0,-3.014581146E0,4.520599365E-1,8.584688576E0
1.979177500E0,7.584128723E0,-3.277135162E0,3.619473267E-1,8.269802248E0
1.989127500E0,7.107819214E0,-3.511248322E0,2.634521484E-1,7.932172829E0
1.999076500E0,6.769373016E0,-3.774850159E0,1.196012878E-1,7.751658482E0
2.009026500E0,6.744524689E0,-4.094734955E0,8.681945801E-2,7.890691050E0
2.018975500E0,7.072492676E0,-4.335135040E0,2.354603577E-1,8.298734244E0
2.028925500E0,7.715106354E0,-4.408632202E0,5.965095520E-1,8.905881629E0
2.038875500E0,8.113577728E0,-4.443210297E0,1.040486298E0,9.308859921E0
2.048824500E0,8.160729675E0,-4.612358551E0,1.063987427E0,9.434162892E0
2.058774500E0,8.407117310E0,-4.899910583E0,5.992039490E-1,9.749245640E0
2.068723500E0,8.838819580E0,-5.121300201E0,3.098556519E-2,1.021535156E1
2.078673500E0,9.299860840E0,-5.079087982E0,-2.221380615E-1,1.059876840E1
2.088622500E0,9.646390228E0,-4.794230347E0,-2.739303589E-2,1.077210469E1
2.098572500E0,9.715097351E0,-4.545298004E0,5.650749207E-1,1.074067783E1
2.108521500E0,9.617051239E0,-4.458777924E0,1.171763306E0,1.066496153E1
2.118471500E0,9.519454193E0,-4.490960999E0,1.713636475E0,1.066420596E1
2.128420500E0,9.634714508E0,-4.584217072E0,2.120041351E0,1.087829698E1
2.138370500E0,9.825118561E0,-4.761897583E0,2.257754974E0,1.114926369E1
2.148320500E0,9.853858795E0,-4.969515839E0,2.137704620E0,1.124119219E1
2.158269500E0,9.782906342E0,-5.036426697E0,2.002086639E0,1.118388132E1
2.168219500E0,9.585766296E0,-5.098547516E0,1.982627106E0,1.103688871E1
2.178168500E0,9.156309357E0,-5.444927216E0,2.177521820E0,1.087321639E1
2.188118500E0,9.037007446E0,-5.641917572E0,2.774779816E0,1.100900270E1
2.198067500E0,9.402547302E0,-5.156477051E0,3.869303741E0,1.140037994E1
2.208017500E0,9.781409454E0,-4.878355408E0,4.916975098E0,1.198544811E1
2.217966500E0,1.035546570E1,-4.667893066E0,5.462889862E0,1.260428741E1
2.227916500E0,1.088656128E1,-4.439617767E0,5.677842865E0,1.305623690E1
2.237865500E0,1.118474121E1,-4.368665314E0,5.739215240E0,1.330872887E1
2.247815500E0,1.117037109E1,-4.708009644E0,6.355932770E0,1.368723590E1
2.257765500E0,1.099673218E1,-5.554199982E0,6.815327454E0,1.407927357E1
2.267714500E0,1.126886627E1,-5.656736755E0,6.015839996E0,1.397055291E1
2.277664500E0,1.157048904E1,-3.943699036E0,4.470004578E0,1.301575659E1
2.287613500E0,1.099074463E1,-1.044976959E0,3.091820526E0,1.146506862E1
2.297563500E0,9.912985840E0,1.322649536E0,1.634900208E0,1.013358716E1
2.307512500E0,8.742120667E0,2.352058868E0,7.818241882E-1,9.086699276E0
2.317462500E0,7.884853363E0,1.683998108E0,4.906796265E-1,8.077594238E0
2.327411500E0,7.130571899E0,3.767665100E-1,9.686357117E-1,7.205918662E0
2.337361500E0,6.560108185E0,-6.494993591E-1,1.193767548E0,6.699399210E0
2.347310500E0,6.265969849E0,-1.137185211E0,7.696994019E-1,6.414671115E0
2.357260500E0,5.991141357E0,-1.131197662E0,-1.541793823E-2,6.097017355E0
2.367210500E0,5.985752563E0,-6.650669861E-1,-5.760021973E-1,6.050068295E0
2.377159500E0,6.261628876E0,7.484436035E-3,-3.659889221E-1,6.272320152E0
2.387109500E0,6.714437256E0,5.563929749E-1,4.728666687E-1,6.754024259E0
2.397058500E0,7.145989838E0,6.463558960E-1,1.185235291E0,7.272395025E0
2.407008500E0,7.452702026E0,2.800675964E-1,1.788630524E0,7.669446167E0
2.416957500E0,6.981481934E0,-1.207239532E0,2.083966370E0,7.385217201E0
2.426907500E0,6.512956238E0,-2.401306458E0,2.561024323E0,7.398899732E0
2.436856500E0,6.955885162E0,-2.882256317E0,2.997816010E0,8.104235972E0
2.446806500E0,7.280260620E0,-3.537892914E0,2.726879425E0,8.541355417E0
2.456755500E0,7.527845764E0,-3.718716888E0,1.858086090E0,8.599407018E0
2.466705500E0,7.968080292E0,-2.689457245E0,9.247769165E-1,8.460419384E0
2.476655500E0,9.002579041E0,-7.216493225E-1,-6.256988525E-2,9.031673273E0
2.486604500E0,1.029199768E1,1.447190552E0,-6.177653503E-1,1.041159021E1
2.496554500E0,1.063418610E1,2.749482422E0,-5.339396667E-1,1.099684769E1
2.506503500E0,1.009934830E1,1.996697845E0,3.418890381E-1,1.030051098E1
2.516453500E0,7.716603241E0,-1.419797516E0,9.623487854E-1,7.904929206E0
2.526402500E0,6.248156891E0,-2.904709625E0,9.666897583E-1,6.957822334E0
2.536352500E0,8.002808075E0,-5.171745300E-1,2.524949341E0,8.407602259E0
2.546301500E0,1.054182816E1,2.629731445E0,3.042123871E0,1.128273664E1
2.556250792E0,1.171119644E1,4.368515625E0,1.225651245E0,1.255938979E1
2.566199792E0,1.210637466E1,4.935536499E0,-1.054107971E0,1.311621026E1
2.576149792E0,1.291723846E1,3.544030151E0,-1.574875031E0,1.348686141E1
2.586099792E0,1.299672318E1,1.786235504E0,6.119274902E-1,1.313316054E1
2.596048792E0,1.196042816E1,1.137933655E0,2.452500000E0,1.226219764E1
2.605998792E0,1.136825958E1,5.536985779E-1,2.189047852E0,1.159033384E1
2.615947792E0,1.104373444E1,1.029858398E-1,7.357200623E-1,1.106869280E1
2.625897792E0,1.077025314E1,2.082170105E-1,-5.951623535E-1,1.078869433E1
2.635846792E0,1.033136581E1,9.951306152E-1,-1.262774048E0,1.045571628E1
2.645796792E0,1.037357803E1,1.198108521E0,-2.219734039E0,1.067585146E1
2.655745792E0,1.087398743E1,5.840853882E-1,-2.790796509E0,1.124158812E1
2.665695792E0,1.077668976E1,1.385967865E0,-2.197580109E0,1.108545477E1
2.675644792E0,1.042926224E1,2.421514435E0,-1.841320953E0,1.086387159E1
2.685594792E0,1.062221100E1,3.573967896E0,-2.270628204E0,1.143504987E1
2.695544792E0,1.170730453E1,3.168161774E0,-2.458038483E0,1.237498209E1
2.705493792E0,1.276560379E1,1.648072815E0,-1.957479401E0,1.301954338E1
2.715443792E0,1.316138077E1,1.742227020E0,-1.434017944E0,1.335341552E1
2.725392792E0,1.269225632E1,1.072968750E0,-1.557511139E0,1.283239936E1
2.735342792E0,1.071711365E1,6.831793213E-1,-4.394860840E-1,1.074785592E1
2.745291792E0,7.885452118E0,-2.622247009E0,5.733078003E0,1.009577723E1
2.755241792E0,2.329605560E0,-1.083027832E1,1.295930099E1,1.704891412E1
2.765190792E0,2.143392792E0,-1.239901611E1,9.599687347E0,1.582667781E1
2.775140792E0,9.367370453E0,-3.464994507E0,2.114802246E0,1.020912360E1
2.785089792E0,1.322724380E1,6.466552734E-2,-3.192860413E-1,1.323125481E1
2.795039792E0,1.159069702E1,-1.224902802E0,7.062313843E-1,1.167661796E1
2.804989792E0,9.136700134E0,-1.632355499E0,1.101409607E0,9.346495436E0
2.814938792E0,8.512647858E0,-1.610051880E0,7.804769897E-1,8.698654203E0
2.824888792E0,8.617879028E0,-1.995051270E0,8.394543457E-1,8.885536119E0
2.834837792E0,8.499026184E0,-2.314187622E0,9.574090576E-1,8.860335351E0
2.844787792E0,8.429720306E0,-2.060315552E0,3.673361206E-1,8.685621477E0
2.854736792E0,8.539292450E0,-1.348395996E0,4.535568237E-1,8.656985682E0
2.864686792E0,8.555009766E0,-1.124162292E0,5.751040649E-1,8.647697823E0
2.874635792E0,8.536298676E0,-9.704319763E-1,4.855902100E-1,8.604994547E0
2.884585792E0,8.847950592E0,-1.063837738E0,8.777746582E-1,8.954801436E0
2.894534792E0,9.614955597E0,-6.194119263E-1,2.121089172E0,9.865599908E0
2.904484792E0,1.032163605E1,2.785707092E-1,1.118623810E0,1.038581203E1
2.914434792E0,1.105196732E1,1.615889740E0,-6.527925110E-1,1.118853070E1
2.924383792E0,1.179621964E1,2.493814087E0,-1.089883575E0,1.210610394E1
2.934333792E0,1.161988632E1,2.288441162E0,-8.562194824E-1,1.187399818E1
2.944282792E0,1.090632019E1,1.684447174E0,-1.112935638E0,1.109160981E1
2.954232792E0,1.115944382E1,1.887724457E0,-7.096742249E-1,1.134020844E1
2.964181792E0,1.136556519E1,1.479373627E0,-1.085991669E0,1.151277535E1
2.974131792E0,1.113609238E1,9.702822876E-1,-8.235873413E-1,1.120858141E1
2.984080792E0,1.114357681E1,7.429051208E-1,3.121009827E-1,1.117267288E1
2.994030792E0,1.032492920E1,4.291575623E-1,2.165097656E0,1.055821893E1
3.003979792E0,9.585017853E0,6.556365967E-2,3.804488525E0,1.031266206E1
3.013929792E0,9.254654846E0,-4.715194702E-2,5.013973389E0,1.052572034E1
3.023879792E0,8.830137634E0,-1.803749084E-1,5.373825073E0,1.033836842E1
3.033828792E0,8.783734131E0,3.948788452E-1,4.706961823E0,9.973234389E0
3.043778792E0,9.425299988E0,1.538800049E0,3.816014557E0,1.028426723E1
3.053727792E0,1.004980133E1,2.085463257E0,3.674409027E0,1.090178634E1
3.063677792E0,9.996362457E0,1.888622589E0,3.796105957E0,1.085838745E1
3.073626792E0,9.504635010E0,1.512604523E0,3.919599152E0,1.039179083E1
3.083576792E0,9.112749939E0,9.964778137E-1,4.169279938E0,1.007065413E1
3.093525792E0,8.815019073E0,4.855902100E-1,5.049150238E0,1.017026436E1
3.103475792E0,8.555758209E0,-8.098159790E-2,6.086044006E0,1.049988039E1
3.113424792E0,8.410410461E0,-4.129911804E-1,7.187603302E0,1.107100750E1
3.123374792E0,8.723559265E0,-2.680924988E-1,8.947792969E0,1.249941434E1
3.133324792E0,8.496780853E0,1.342707825E-1,9.246272278E0,1.255813937E1
3.143273792E0,9.037456512E0,9.066645813E-1,8.074958038E0,1.215329619E1
3.153223792E0,9.769134979E0,1.094673615E0,6.346203003E0,1.170079489E1
3.163172792E0,9.642198944E0,1.250499573E0,4.057013397E0,1.053542156E1
3.173122792E0,9.511820068E0,2.510429535E0,1.448537750E0,9.943602922E0
3.183071792E0,1.034693344E1,4.497247925E0,-1.055455170E0,1.133129543E1
3.193021792E0,1.107067841E1,6.545588379E0,-2.078876953E0,1.302790762E1
3.202970792E0,1.092263626E1,7.248227234E0,-2.565964050E0,1.335758034E1
3.212920792E0,8.776100006E0,6.466852112E0,-3.307372284E0,1.139205069E1
3.222869792E0,6.169869690E0,4.604724426E0,-2.731968842E0,8.169114565E0
3.232819792E0,5.531596985E0,1.973645782E0,-3.465293884E-1,5.883360051E0
3.242768792E0,6.073021088E0,-4.161346436E-1,-3.875440979E-1,6.099585527E0
3.252718792E0,7.279063110E0,-1.390757904E0,-1.547481995E0,7.570579095E0
3.262668792E0,8.310717773E0,-1.528172150E0,-2.663710785E0,8.859948937E0
3.272617792E0,7.989036713E0,-2.046544189E0,-3.704346771E0,9.040754156E0
3.282567792E0,7.742649078E0,-3.584296417E0,-3.214714966E0,9.117575767E0
3.292516792E0,8.501271515E0,-2.600242767E0,-3.658542023E0,9.613418203E0
3.302466792E0,9.952054596E0,-7.379653931E-1,-3.605552216E0,1.061074881E1
3.312415792E0,1.008662476E1,1.164129181E0,-2.146685944E0,1.037802757E1
3.322365792E0,8.093519440E0,9.186396790E-1,-1.494941254E0,8.281533984E0
3.332314792E0,8.398435364E0,-3.884422302E-1,-2.929108887E0,8.903049073E0
3.342264792E0,1.029738647E1,-6.274951172E-1,-2.982847137E0,1.073905468E1
3.352213792E0,8.693920898E0,8.711883545E-2,-4.061653748E0,9.596295194E0
3.362163792E0,6.660998383E0,3.087778931E0,-4.226760406E0,8.471645750E0
3.372113792E0,7.693102112E0,3.898792419E0,-1.841470642E0,8.819037167E0
3.382062792E0,8.717871094E0,1.301244049E0,-1.056802368E-1,8.815082574E0
3.392012792E0,9.977351990E0,-5.551056519E0,1.265393600E1,1.704358758E1
3.401961792E0,7.883655853E0,-7.202871552E0,1.205443268E1,1.610412169E1
3.411911792E0,7.297325134E0,-3.568728790E0,9.044940948E0,1.215720922E1
3.421860792E0,5.794151001E0,-9.460327148E-2,-1.987566833E0,6.126300476E0
3.431810792E0,7.542365570E0,-1.436712341E0,-1.488804016E0,7.820994703E0
3.441759792E0,8.923543396E0,-3.959266663E0,1.325044556E0,9.851962359E0
3.451709792E0,1.096410004E1,-6.696773987E0,4.801265717E0,1.371533536E1
3.461658792E0,1.197030762E1,-9.958042145E0,1.098565521E1,1.905611420E1
3.471608792E0,1.077788727E1,-1.008497818E1,1.025966492E1,1.797582719E1
3.481558792E0,1.035351974E1,-7.042405243E0,2.794538727E0,1.282966443E1
3.491507792E0,1.166269730E1,-5.773643646E0,-1.509610748E0,1.310085470E1
3.501457792E0,1.261546600E1,-6.571185150E0,-1.968256989E0,1.435982216E1
3.511406792E0,1.246966919E1,-7.317533112E0,-4.896318054E-1,1.446646743E1
3.521356792E0,1.105855362E1,-6.805148621E0,6.982978821E-1,1.300343323E1
3.531305792E0,9.701176300E0,-4.767585754E0,1.486259308E0,1.091107979E1
3.541255792E0,8.984167328E0,-3.969295807E0,1.217568054E0,9.897123003E0
3.551204792E0,8.735534363E0,-3.236120453E0,7.084767151E-1,9.342589333E0
3.561155750E0,8.002059631E0,-3.263214111E0,-4.191284180E-2,8.641948933E0
3.571104750E0,7.289391632E0,-3.944447479E0,1.661544800E-2,8.288194759E0
3.581054750E0,7.170688477E0,-4.507875824E0,-4.231700134E-1,8.480494710E0
3.591003750E0,7.115752716E0,-4.826563110E0,-1.250948639E0,8.688758293E0
3.600953750E0,6.983876953E0,-5.329966278E0,-2.176174622E0,9.050901270E0
3.610903750E0,6.989415436E0,-5.604645081E0,-3.261268158E0,9.534141000E0
3.620852750E0,6.554120636E0,-5.767207031E0,-4.360582123E0,9.758680787E0
3.630802750E0,5.989943848E0,-5.923781433E0,-5.284161530E0,9.944494800E0
3.640751750E0,4.991220703E0,-6.365662537E0,-5.362299042E0,9.705060260E0
3.650701750E0,5.003046112E0,-6.400989075E0,-3.909869385E0,9.016108370E0
3.660650750E0,6.197861481E0,-6.210285645E0,-2.371219025E0,9.088664059E0
3.670600750E0,7.990084534E0,-5.855822754E0,-9.773176575E-1,9.954258425E0
3.680549750E0,8.960965576E0,-5.423970795E0,1.076261902E-1,1.047520628E1
3.690499750E0,7.929011536E0,-5.874982910E0,9.089099121E-1,9.910134477E0
3.700448750E0,4.965025177E0,-8.034392395E0,4.405339050E0,1.042160968E1
3.710398750E0,3.558849335E0,-9.789642334E0,2.781216431E0,1.078135754E1
3.720348750E0,3.434458008E0,-1.077384567E1,9.819580078E-1,1.135057240E1
3.730297750E0,3.738176422E0,-1.159937897E1,7.729925537E-1,1.221135017E1
3.740247750E0,3.362906799E0,-1.190609116E1,7.628137207E-1,1.239540373E1
3.750196750E0,3.305126953E0,-1.130958160E1,2.306703186E-1,1.178489325E1
3.760146750E0,3.537443848E0,-1.009500732E1,-2.974314880E-1,1.070098815E1
3.770095750E0,3.339405670E0,-8.821755066E0,-9.071136475E-1,9.476172637E0
3.780045750E0,2.708916779E0,-7.879015503E0,-1.457070007E0,8.458142137E0
3.789994750E0,2.386187897E0,-7.417375488E0,-1.780098267E0,7.992502840E0
3.799944750E0,2.837499390E0,-7.206613770E0,-1.513652344E0,7.891630264E0
3.809893750E0,3.433559875E0,-7.141648865E0,-6.953041077E-1,7.954616881E0
3.819843750E0,4.044888611E0,-7.263345795E0,-6.541397095E-2,8.313939800E0
3.829792750E0,5.050497437E0,-7.300019531E0,2.653981018E-1,8.880779564E0
3.839742750E0,7.159012756E0,-4.774321747E0,9.630972290E-1,8.658704757E0
3.849692750E0,1.089703949E1,-8.363108826E-1,1.124162292E0,1.098674776E1
3.859641750E0,7.537874908E0,-5.570516052E0,-2.403851166E0,9.676192828E0
3.869591750E0,5.355263672E0,-7.835007019E0,-2.621049500E0,9.845612447E0
3.879540750E0,6.257736969E0,-6.344855804E0,-7.379653931E-2,8.911897277E0
3.889490750E0,5.132227478E0,-7.610473938E0,9.400451660E-2,9.179755405E0
3.899439750E0,3.644022217E0,-8.801098022E0,1.493444366E0,9.642022630E0
3.909389750E0,4.439617767E0,-7.486831055E0,-2.176473999E-1,8.706906199E0
3.919338750E0,4.095034332E0,-7.886350250E0,-2.530936890E0,9.239559946E0
3.929288750E0,4.576283569E0,-7.516020355E0,-3.745062103E0,9.563389747E0
3.939237750E0,5.240751801E0,-6.285878448E0,-4.145629120E0,9.174093312E0
3.949187750E0,6.790928192E0,-4.158502350E0,-3.863914948E0,8.850970920E0
3.959136750E0,5.734724579E0,-5.774841156E0,-2.531385956E0,8.523131539E0
3.969086750E0,2.176623688E0,-6.950646057E0,1.157991943E0,7.374965534E0
3.979036750E0,3.507206726E0,-4.839885406E0,1.567240906E-1,5.979092925E0
3.988985750E0,3.451672211E0,-5.417234802E0,-4.954696655E-1,6.442512254E0
3.998935750E0,1.952839050E0,-7.174281006E0,5.484594727E-1,7.455514476E0
4.008884750E0,2.084565125E0,-6.832990723E0,-6.773414612E-1,7.175929586E0
4.018834750E0,1.954635315E0,-5.904770966E0,-1.575324097E0,6.416273481E0
4.028783750E0,1.255738678E0,-5.627996521E0,-2.071841583E0,6.127295653E0
4.038733750E0,1.992356873E0,-5.941145325E0,-1.776805115E0,6.513350144E0
4.048682750E0,3.546874237E0,-6.685247955E0,-1.002465363E0,7.633989382E0
4.058632750E0,6.182892609E0,-8.296497345E0,1.197509766E-1,1.034767459E1
4.068581750E0,6.981631622E0,-9.533973999E0,9.613009644E-1,1.185596642E1
4.078531750E0,5.907615051E0,-9.612560577E0,1.677411804E0,1.140679389E1
4.088481750E0,1.360371094E0,-9.571246490E0,2.802322540E0,1.006540513E1
4.098430750E0,-9.558073883E0,-8.883426819E0,3.313509521E0,1.346296378E1
4.108380750E0,-1.672651703E1,-1.564396820E1,4.621190186E0,2.336376493E1
4.118329750E0,-1.810200668E1,-2.043520477E1,5.070256348E0,2.776666598E1
4.128279750E0,-1.373603577E1,-2.000170624E1,3.747307434E0,2.455176662E1
4.138228750E0,-4.691693573E0,-1.520448212E1,1.181942139E0,1.595572788E1
4.148178750E0,2.576891327E0,-1.276021500E1,-7.906558228E-1,1.304180173E1
4.158127750E0,1.146226410E1,-9.243128815E0,-3.249442749E0,1.507905192E1
4.168077750E0,1.653880737E1,-4.157155151E0,-3.767365723E0,1.746445341E1
4.178026750E0,4.475093994E0,-9.933044128E0,-7.394622803E-1,1.091964452E1
4.187976750E0,-5.478158112E0,-1.474643463E1,7.683522034E-1,1.574985447E1
4.197925750E0,-9.551337891E0,-1.652548508E1,2.651585999E0,1.927045980E1
4.207875750E0,-3.917952576E0,-1.326526474E1,2.755919037E0,1.410364105E1
4.217825750E0,7.915539551E-1,-1.078372513E1,2.134710846E0,1.102144617E1
4.227774750E0,3.544628906E-1,-1.068373306E1,1.697919159E0,1.082361888E1
4.237724750E0,-2.747686157E0,-1.137349869E1,6.959028625E-1,1.172137076E1
4.247673750E0,-3.387306061E0,-1.103490280E1,3.412902832E-2,1.154314026E1
4.257623750E0,-2.881058807E0,-1.059481796E1,1.701960754E-1,1.098087584E1
4.267572750E0,-2.385140076E0,-1.036369858E1,4.480183411E-1,1.064405289E1
4.277522750E0,-1.338217163E0,-9.909093933E0,1.048270111E0,1.005384692E1
4.287471750E0,7.529342651E-2,-9.069489899E0,6.634204102E-1,9.094033361E0
4.297421750E0,1.262624359E0,-8.343349915E0,-4.062551880E-1,8.448121173E0
4.307370750E0,1.388063507E0,-8.222700806E0,-5.451663208E-1,8.356837629E0
4.317320750E0,9.355545044E-1,-8.366701355E0,-8.126600647E-1,8.457976719E0
4.327269750E0,-3.802093506E-2,-8.995992737E0,-6.322851562E-1,9.018265655E0
4.337219750E0,-9.422904968E-1,-9.794881439E0,-2.270777893E-1,9.842722088E0
4.347169750E0,-1.526375885E0,-1.019978943E1,2.936892700E-1,1.031754724E1
4.357118750E0,-1.763333130E0,-1.020442978E1,6.072871399E-1,1.037345307E1
4.367068750E0,-1.528471527E0,-9.984387360E0,6.688092041E-1,1.012282184E1
4.377017750E0,-1.085542603E0,-9.777667236E0,6.879693604E-1,9.861768663E0
4.386967750E0,-6.586303711E-1,-9.595795441E0,6.767427063E-1,9.642150424E0
4.396916750E0,-4.454736328E-1,-9.703721008E0,5.324427795E-1,9.728522163E0
4.406866750E0,-1.675016785E-1,-9.739496613E0,3.929328918E-1,9.748858771E0
4.416815750E0,8.038284302E-2,-9.823771362E0,3.457809448E-1,9.830183602E0
4.426765750E0,4.939727783E-3,-9.944121094E0,1.281335449E-1,9.944947809E0
4.436714750E0,1.501377869E-1,-1.014380585E1,-4.140390015E-1,1.015336234E1
4.446664750E0,5.026547241E-1,-1.048973648E1,-9.940827942E-1,1.054871716E1
4.456613750E0,1.737736359E0,-1.062221100E1,-9.913883972E-1,1.080897521E1
4.466563750E0,2.026635590E0,-1.093221634E1,-9.592053223E-1,1.115977960E1
4.476513750E0,2.010319519E0,-1.106528961E1,-1.140478363E0,1.130410145E1
4.486462750E0,2.046843567E0,-1.123324036E1,-1.063538361E0,1.146762274E1
4.496412750E0,2.200124817E0,-1.132095795E1,-6.715036011E-1,1.155229653E1
4.506361750E0,2.132465515E0,-1.126362717E1,2.679428101E-2,1.146374389E1
4.516311750E0,2.255060577E0,-1.110121490E1,1.307530975E0,1.140315342E1
4.526260750E0,2.437830505E0,-1.086081482E1,2.813100128E0,1.148102123E1
4.536210750E0,2.543211365E0,-1.044662613E1,4.070036316E0,1.149630885E1
4.546159750E0,2.947819977E0,-9.792785797E0,4.877157898E0,1.133026767E1
4.556109750E0,3.731141052E0,-9.008267212E0,5.266498260E0,1.108180020E1
4.566058250E0,4.329596558E0,-8.247698822E0,4.893174591E0,1.052202926E1
4.576008250E0,4.441563721E0,-7.490124207E0,4.489164734E0,9.797042866E0
4.585957250E0,4.401596832E0,-6.878346405E0,3.843407593E0,9.025380095E0
4.595907250E0,4.217180328E0,-6.582561493E0,2.916085968E0,8.343757134E0
4.605857250E0,3.956422577E0,-6.633455658E0,2.139650574E0,8.014619027E0
4.615806250E0,3.759132843E0,-6.934329987E0,1.614991608E0,8.051348333E0
4.625756250E0,3.578159180E0,-7.297474823E0,1.291065216E0,8.229411358E0
4.635705250E0,3.469036102E0,-7.615713043E0,1.125958557E0,8.443996643E0
4.645655250E0,3.458258514E0,-7.863298187E0,1.112336884E0,8.661887997E0
4.655604250E0,3.559448090E0,-8.026458893E0,1.244362335E0,8.868040972E0
4.665554250E0,3.749852142E0,-8.134534149E0,1.422042847E0,9.069412482E0
4.675503250E0,4.009861450E0,-8.270451508E0,1.565444641E0,9.323624505E0
4.685453250E0,4.287384338E0,-8.344846802E0,1.713786163E0,9.537043338E0
4.695402250E0,4.528233490E0,-8.390801239E0,1.851050720E0,9.712715004E0
4.705352250E0,4.705315247E0,-8.350534973E0,1.901645508E0,9.771779856E0
4.715301250E0,4.760849762E0,-8.191116486E0,1.903741150E0,9.663555769E0
4.725251250E0,4.748874664E0,-8.018675079E0,1.704655151E0,9.474007061E0
4.735201250E0,4.669689331E0,-7.896529083E0,1.392853546E0,9.279073823E0
4.745150250E0,4.559668121E0,-7.827522583E0,1.068777466E0,9.121566117E0
4.755100250E0,4.415517883E0,-7.823630676E0,7.261399841E-1,9.012950372E0
4.765049250E0,4.255800018E0,-7.879015503E0,4.047583008E-1,8.964069855E0
4.774999250E0,4.111200714E0,-7.965236206E0,1.345701599E-1,8.964656617E0
4.784948250E0,4.031716003E0,-8.067922668E0,-9.280700684E-2,9.019685319E0
4.794898250E0,3.975882111E0,-8.114176483E0,-2.688409424E-1,9.039899004E0
4.804847250E0,3.936963043E0,-8.100854187E0,-3.739224243E-1,9.014617826E0
4.814797250E0,3.942651215E0,-8.081394653E0,-4.168830872E-1,9.001512631E0
4.824746250E0,3.936064911E0,-8.018076324E0,-4.284091187E-1,8.942353678E0
4.834696250E0,3.946692810E0,-7.992329865E0,-4.068539429E-1,8.922962004E0
4.844645250E0,3.988905029E0,-8.039781189E0,-3.089575195E-1,8.980250534E0
4.854595250E0,4.054917755E0,-8.156987457E0,-1.022373962E-1,9.109843844E0
4.864545250E0,4.123475189E0,-8.318501587E0,2.935395813E-1,9.289062481E0
4.874494250E0,4.205504608E0,-8.491841125E0,7.328759766E-1,9.504459054E0
4.884444250E0,4.272116089E0,-8.668773193E0,1.162931671E0,9.734013285E0
4.894393250E0,4.308191071E0,-8.903185730E0,1.437610474E0,9.994696109E0
4.904343250E0,4.298461304E0,-9.233848114E0,1.416654053E0,1.028336663E1
4.914292250E0,4.318070526E0,-9.522597656E0,1.190773773E0,1.052347573E1
4.924242250E0,4.463418274E0,-9.657916260E0,8.939410400E-1,1.067691808E1
4.934191250E0,4.711751862E0,-9.681866455E0,7.141648865E-1,1.079116190E1
4.944141250E0,5.017865295E0,-9.632169800E0,7.885601807E-1,1.088942121E1
4.954090250E0,5.300776978E0,-9.493108978E0,9.873468018E-1,1.091751842E1
4.964040250E0,5.510640564E0,-9.272767181E0,1.195563812E0,1.085268370E1
4.973989250E0,5.634133759E0,-8.968000946E0,1.309776306E0,1.067164552E1
4.983939250E0,5.689668274E0,-8.586294708E0,1.247356110E0,1.037558091E1
4.993889250E0,5.683830414E0,-8.235873413E0,1.046473846E0,1.006134417E1
5.003838250E0,5.614823914E0,-8.048014069E0,7.908055115E-1,9.844904844E0
5.013788250E0,5.524112549E0,-7.954308929E0,5.584886169E-1,9.700451512E0
5.023737250E0,5.400619354E0,-7.942483521E0,3.878434753E-1,9.612500010E0
5.033687250E0,5.289400635E0,-7.973020020E0,3.811074829E-1,9.575596599E0
5.043636250E0,5.147645416E0,-7.973918152E0,5.888754272E-1,9.509384748E0
5.053586250E0,4.912185059E0,-8.053103485E0,9.111552429E-1,9.476932081E0
5.063535250E0,4.608017578E0,-8.353379059E0,1.135388947E0,9.607386521E0
5.073485250E0,4.251758423E0,-9.020242310E0,1.235830078E0,1.004835793E1
5.083434250E0,3.804787903E0,-9.848320312E0,1.405427399E0,1.065087086E1
5.093384250E0,3.448828125E0,-1.069660629E1,1.497785339E0,1.133821690E1
5.103333250E0,3.226989441E0,-1.163665146E1,1.379231873E0,1.215431605E1
5.113283250E0,3.052153015E0,-1.305390427E1,1.175804901E0,1.345743556E1
5.123232250E0,2.987337799E0,-1.516601212E1,1.010847931E0,1.549044622E1
5.133182250E0,3.116369476E0,-1.732557129E1,9.737251282E-1,1.763052239E1
5.143132250E0,3.524121552E0,-1.833716766E1,1.040935364E0,1.870172979E1
5.153081250E0,4.139342194E0,-1.703188202E1,7.867639160E-1,1.754531722E1
5.163031250E0,4.199816437E0,-1.339534424E1,3.671864319E-1,1.404309550E1
5.172980250E0,3.625760193E0,-9.334738312E0,2.742297363E-1,1.001791786E1
5.182930250E0,2.748284912E0,-6.482719116E0,2.457888794E-1,7.045504189E0
5.192879250E0,1.902244263E0,-4.553979950E0,2.097138977E-1,4.939761790E0
5.202829250E0,1.225052490E0,-3.311413879E0,3.342549133E-1,3.546539416E0
5.212778250E0,7.225474548E-1,-2.865940247E0,6.253994751E-1,3.021061539E0
5.222728250E0,2.056723022E-1,-3.476370850E0,1.248553619E0,3.699505578E0
5.232677250E0,-1.522334290E-1,-5.007237396E0,2.305505676E0,5.514613113E0
5.242627250E0,-6.511459351E-2,-7.225025482E0,3.110531616E0,7.866424859E0
5.252576250E0,4.547543335E-1,-9.739945679E0,3.580404510E0,1.038713819E1
5.262526250E0,1.184486847E0,-1.194830338E1,3.790567474E0,1.259100331E1
5.272476250E0,1.892813873E0,-1.339354797E1,3.795058136E0,1.404892658E1
5.282425250E0,2.416275330E0,-1.367032242E1,3.639980621E0,1.435150028E1
5.292375250E0,2.684367828E0,-1.250754044E1,3.351979523E0,1.322422645E1
5.302324250E0,2.401605835E0,-1.056083862E1,3.174149323E0,1.128601998E1
5.312274250E0,1.692380676E0,-9.084009705E0,3.329975281E0,9.822022197E0
5.322223250E0,1.061891785E0,-8.083490295E0,3.429368591E0,8.844828910E0
5.332173250E0,6.355783081E-1,-7.352859650E0,3.209176483E0,8.047814518E0
5.342122250E0,3.953279114E-1,-7.028484192E0,2.886297913E0,7.608323720E0
5.352072250E0,3.432362366E-1,-7.137307892E0,2.618504791E0,7.610226173E0
5.362021250E0,4.198768616E-1,-7.615563354E0,2.377056885E0,7.988961210E0
5.371971250E0,6.045927429E-1,-8.277037811E0,2.147284698E0,8.572381168E0
5.381920250E0,7.948471069E-1,-8.929081879E0,1.910327454E0,9.165677067E0
5.391870250E0,8.324189758E-1,-9.504185944E0,1.911974030E0,9.730268059E0
5.401820250E0,7.632627869E-1,-9.902357941E0,2.076182556E0,1.014641793E1
5.411769250E0,6.161187744E-1,-1.008812164E1,2.303260345E0,1.036604114E1
5.421719250E0,4.872367859E-1,-1.005953110E1,2.491568756E0,1.037494484E1
5.431668250E0,4.599934387E-1,-9.827064514E0,2.432890778E0,1.013418711E1
5.441618250E0,5.270539856E-1,-9.388925629E0,2.029928741E0,9.620307742E0
5.451567250E0,6.604266357E-1,-8.979526978E0,1.725162506E0,9.167565312E0
5.461517250E0,7.949967957E-1,-8.729097748E0,1.740879822E0,8.936432731E0
5.471466250E0,8.690927124E-1,-8.654403076E0,2.008074188E0,8.926722618E0
5.481416250E0,1.009500732E0,-8.717122650E0,2.381697235E0,9.092843381E0
5.491365250E0,1.249900818E0,-8.889713745E0,2.679428101E0,9.368489605E0
5.501315250E0,1.525477753E0,-9.109456787E0,2.891836395E0,9.678429783E0
5.511264250E0,1.786983948E0,-9.317823486E0,3.043920135E0,9.963964871E0
5.521214250E0,1.967358856E0,-9.473050690E0,3.149600372E0,1.017492864E1
5.531163250E0,2.060016174E0,-9.568701782E0,3.150049438E0,1.028234078E1
5.541113250E0,2.103276215E0,-9.602082367E0,3.088976440E0,1.030366595E1
5.551063250E0,2.093995514E0,-9.575288086E0,3.012186127E0,1.025398578E1
5.561012125E0,2.042652283E0,-9.504784698E0,2.885250092E0,1.014090867E1
5.570962125E0,1.960173798E0,-9.417815552E0,2.725831604E0,9.998384320E0
5.580911125E0,1.885928192E0,-9.342971191E0,2.531535645E0,9.861871453E0
5.590861125E0,1.790277100E0,-9.324110413E0,2.350112915E0,9.780958940E0
5.600810125E0,1.712738342E0,-9.350605316E0,2.225871277E0,9.763288142E0
5.610760125E0,1.652713165E0,-9.372609558E0,2.120340729E0,9.750544372E0
5.620709125E0,1.596579895E0,-9.382339325E0,2.049687653E0,9.735429012E0
5.630659125E0,1.584604797E0,-9.330247650E0,1.993853760E0,9.671605161E0
5.640608125E0,1.580712891E0,-9.231602783E0,1.930385742E0,9.562820311E0
5.650558125E0,1.583556976E0,-9.147178345E0,1.901495819E0,9.475980726E0
5.660507125E0,1.604214020E0,-9.073681183E0,1.958676910E0,9.420276433E0
5.670457125E0,1.658700714E0,-9.026379547E0,2.028581543E0,9.399040316E0
5.680407125E0,1.736987915E0,-9.043294373E0,2.134561157E0,9.452758934E0
5.690356125E0,1.857637024E0,-9.123078461E0,2.286644897E0,9.586976625E0
5.700306125E0,1.993704071E0,-9.227411499E0,2.409389648E0,9.742953216E0
5.710255125E0,2.139201508E0,-9.286538544E0,2.479743347E0,9.847086284E0
5.720205125E0,2.258802795E0,-9.304950256E0,2.507286072E0,9.898018629E0
5.730154125E0,2.334395599E0,-9.279353485E0,2.553988953E0,9.903467246E0
5.740104125E0,2.392175446E0,-9.291178894E0,2.656076660E0,9.955061618E0
5.750053125E0,2.429298248E0,-9.225465546E0,2.697241058E0,9.913920205E0
5.760003125E0,2.482138367E0,-9.112899628E0,2.708318024E0,9.825524770E0
5.769952125E0,2.530038757E0,-8.992699585E0,2.737806702E0,9.734748455E0
5.779902125E0,2.538870392E0,-8.902586975E0,2.807861023E0,9.673985799E0
5.789851125E0,2.530338135E0,-8.844507751E0,2.897075500E0,9.644738197E0
5.799801125E0,2.495310974E0,-8.796307983E0,2.977458344E0,9.615969487E0
5.809750125E0,2.463427277E0,-8.759334869E0,3.032244415E0,9.591085835E0
5.819700125E0,2.452350311E0,-8.764124908E0,3.101849670E0,9.614851993E0
5.829650125E0,2.427501984E0,-8.795260162E0,3.119662628E0,9.642699939E0
5.839599125E0,2.442770233E0,-8.856183472E0,3.099903717E0,9.695798840E0
5.849549125E0,2.452200623E0,-8.938362579E0,3.137325897E0,9.785214728E0
5.859498125E0,2.472857666E0,-9.034462738E0,3.215014343E0,9.903174200E0
5.869448125E0,2.469863892E0,-9.121132507E0,3.233725433E0,9.987605621E0
5.879397125E0,2.402354279E0,-9.221873016E0,3.291205902E0,1.008197819E1
5.889347125E0,2.368674316E0,-9.421258392E0,3.386258240E0,1.028773408E1
5.899296125E0,2.378853149E0,-9.724527740E0,3.421435089E0,1.057977316E1
5.909246125E0,2.385589142E0,-1.009545639E1,3.403322754E0,1.091750343E1
5.919195125E0,2.323618011E0,-1.046354095E1,3.330124969E0,1.122384169E1
5.929145125E0,2.252665558E0,-1.075348801E1,3.232078857E0,1.145243818E1
5.939094125E0,2.194137268E0,-1.088805817E1,3.167413330E0,1.154974269E1
5.949044125E0,2.188299408E0,-1.097951797E1,3.218906250E0,1.164902686E1
5.958993125E0,2.330803070E0,-1.122860001E1,3.318000183E0,1.193830919E1
5.968943125E0,2.559078369E0,-1.173469757E1,3.385210419E0,1.247844777E1
5.978893125E0,2.700534210E0,-1.242281662E1,3.319646759E0,1.313922800E1
5.988842125E0,2.669398956E0,-1.307156754E1,3.252436523E0,1.373207603E1
5.998792125E0,2.396965485E0,-1.360311218E1,2.748883667E0,1.408355303E1
6.008741125E0,1.827998657E0,-1.352392685E1,1.550475769E0,1.373470610E1
6.018691125E0,1.143172760E0,-1.249421814E1,5.550457764E-1,1.255867854E1
6.028640125E0,7.297325134E-1,-1.091021210E1,1.400637360E0,1.102392954E1
6.038590125E0,3.864962769E-1,-9.859846344E0,2.414928131E0,1.015863314E1
6.048539125E0,-5.284011841E-2,-9.408085785E0,2.350412292E0,9.697386666E0
6.058489125E0,-4.884342957E-1,-9.268276520E0,1.705253906E0,9.436493448E0
6.068438125E0,-7.776329041E-1,-9.501491547E0,8.318202209E-1,9.569481670E0
6.078388125E0,-8.634045410E-1,-1.013871643E1,-1.826202393E-2,1.017542981E1
6.088337125E0,-7.667056274E-1,-1.085572540E1,-8.427474976E-1,1.091534859E1
6.098287125E0,-6.126759338E-1,-1.145088776E1,-1.531914368E0,1.156913842E1
6.108236125E0,-3.781137085E-1,-1.199335968E1,-1.134490814E0,1.205283020E1
6.118186125E0,2.273771667E-1,-1.301797897E1,2.683619385E0,1.329365600E1
6.128136125E0,8.298742676E-1,-1.307366318E1,1.579066315E0,1.319480241E1
6.138085125E0,4.992118835E-1,-1.213571365E1,-2.066003723E0,1.232043545E1
6.148035125E0,-1.008003845E0,-1.209155548E1,-7.128176880E0,1.407240887E1
6.157984125E0,-1.122964783E0,-1.157093811E1,-6.325545959E0,1.323480980E1
6.167934125E0,-3.489244080E-1,-1.076576248E1,-3.614084473E0,1.136155784E1
6.177883125E0,-8.592132568E-2,-1.050829788E1,-1.951641541E0,1.068833998E1
6.187833125E0,-5.388793945E-3,-1.005144791E1,-1.043480072E0,1.010546806E1
6.197782125E0,-1.904040527E-1,-9.251661072E0,-5.427713013E-1,9.269524636E0
6.207732125E0,-2.396516418E-1,-8.511300659E0,-1.101708984E-1,8.515386629E0
6.217681125E0,-1.152603149E-1,-7.847880249E0,2.806663513E-1,7.853743244E0
6.227631125E0,1.686991882E-1,-7.320526886E0,4.866380310E-1,7.338623160E0
6.237580125E0,5.384303284E-1,-7.064110107E0,5.279521179E-1,7.104244665E0
6.247530125E0,8.352630615E-1,-7.062164154E0,4.939727783E-1,7.128522710E0
6.257479125E0,1.021924896E0,-7.239844666E0,4.849914551E-1,7.327680260E0
6.267429125E0,1.051563263E0,-7.558681641E0,4.733157349E-1,7.646141591E0
6.277379125E0,9.839039612E-1,-7.875123596E0,4.331991577E-1,7.948163321E0
6.287328125E0,9.056167603E-1,-8.097411346E0,3.817062378E-1,8.156832221E0
6.297278125E0,9.735754395E-1,-8.154592438E0,4.589456177E-1,8.225318112E0
6.307227125E0,1.152154083E0,-8.092770996E0,4.385879517E-1,8.186132226E0
6.317177125E0,1.367705841E0,-7.959398346E0,2.025288391E-1,8.078592651E0
6.327126125E0,1.608854370E0,-7.858957214E0,-9.325607300E-2,8.022488241E0
6.337076125E0,1.866169281E0,-7.853867798E0,-4.640350342E-1,8.085861468E0
6.347025125E0,2.191293182E0,-8.002658386E0,-8.297245789E-1,8.338629979E0
6.356975125E0,2.496807861E0,-8.156538391E0,-9.057664490E-1,8.578087251E0
6.366924125E0,2.632725220E0,-8.182883606E0,-5.081932068E-1,8.610986385E0
6.376874125E0,2.666554871E0,-8.206534424E0,1.020877075E-1,8.629492687E0
6.386823125E0,2.675386505E0,-8.272696838E0,5.505551147E-1,8.711964007E0
6.396773125E0,2.630779266E0,-8.361462250E0,8.431965637E-1,8.806022425E0
6.406722125E0,2.644999695E0,-8.401878204E0,9.282197571E-1,8.857153756E0
6.416672125E0,2.715203705E0,-8.391549683E0,6.475534058E-1,8.843628364E0
6.426622125E0,2.785707092E0,-8.328081665E0,1.402583313E-1,8.782754729E0
6.436571125E0,2.842588806E0,-8.146509247E0,-2.818638611E-1,8.632807844E0
6.446521125E0,2.908302155E0,-7.919880524E0,-3.260220337E-1,8.443282495E0
6.456470125E0,2.952460327E0,-7.743098145E0,-2.529739380E-2,8.286931327E0
6.466420125E0,2.974165192E0,-7.629484406E0,4.177812195E-1,8.199343390E0
6.476369125E0,3.028202820E0,-7.568112030E0,7.812254333E-1,8.188812197E0
6.486319125E0,3.113076324E0,-7.511829071E0,1.004710693E0,8.193183983E0
6.496268125E0,3.225193176E0,-7.471413116E0,1.141077118E0,8.217416989E0
6.506218125E0,3.382066956E0,-7.485783234E0,1.207389221E0,8.302596958E0
6.516167125E0,3.539988556E0,-7.546407166E0,1.228195953E0,8.425452236E0
6.526117125E0,3.731290741E0,-7.721093903E0,1.286724243E0,8.671417469E0
6.536066125E0,3.988605652E0,-7.962990875E0,1.439257050E0,9.021621782E0
6.546016125E0,4.312082977E0,-8.296347656E0,1.706152039E0,9.504441005E0
6.555965125E0,4.640500031E0,-8.749006348E0,1.894610138E0,1.008309973E1
6.565915500E0,5.014123077E0,-9.240584106E0,2.029030609E0,1.070732413E1
6.575864500E0,5.389542389E0,-9.683662720E0,2.050136719E0,1.127047255E1
6.585814500E0,5.725144501E0,-9.927805023E0,2.059866486E0,1.164395303E1
6.595764500E0,6.140680389E0,-1.020532791E1,2.061962128E0,1.208752916E1
6.605713500E0,6.593638458E0,-1.058523788E1,1.857487335E0,1.260847288E1
6.615663500E0,7.034621429E0,-1.098131424E1,1.470991058E0,1.312398475E1
6.625612500E0,7.341632996E0,-1.144504990E1,1.038839722E0,1.363700591E1
6.635562500E0,7.587122498E0,-1.198392929E1,4.155358887E-1,1.418984352E1
6.645511500E0,7.742798767E0,-1.233524872E1,-3.824546814E-1,1.456899328E1
6.655461500E0,7.859256592E0,-1.229243774E1,-6.625222778E-1,1.460516606E1
6.665410500E0,7.683522034E0,-1.198123489E1,-1.172062683E-1,1.423377103E1
6.675360500E0,7.464377747E0,-1.169577850E1,9.541159058E-1,1.390749823E1
6.685309500E0,7.446864166E0,-1.172511749E1,1.647324371E0,1.398741734E1
6.695259500E0,7.375312958E0,-1.188124283E1,2.104024658E0,1.414164390E1
6.705208500E0,7.200027466E0,-1.219364319E1,2.656076660E0,1.440763940E1
6.715158500E0,6.934779053E0,-1.246877106E1,3.218606873E0,1.462603304E1
6.725108500E0,6.254743195E0,-1.240844650E1,3.152594147E0,1.424886686E1
6.735057500E0,5.014272766E0,-1.195429092E1,2.063309326E0,1.312650937E1
6.745007500E0,3.896397400E0,-1.083147583E1,1.202299805E0,1.157360385E1
6.754956500E0,2.748584290E0,-9.519005127E0,8.352630615E-2,9.908236516E0
6.764906500E0,1.161734161E0,-8.346194000E0,-2.689756622E0,8.845528319E0
6.774855500E0,-5.059478760E-1,-7.555687866E0,-5.425767059E0,9.315758185E0
6.784805500E0,-6.298901367E-1,-6.767576752E0,-2.446063385E0,7.223578252E0
6.794754500E0,-9.310638428E-2,-5.836961975E0,6.068380737E-1,5.869160617E0
6.804704500E0,4.107458496E-1,-5.144951019E0,1.931583252E0,5.510920704E0
6.814653500E0,7.655081177E-1,-5.126539307E0,2.625540161E0,5.810410405E0
6.824603500E0,9.764195251E-1,-6.014642487E0,3.060236206E0,6.818677655E0
6.834552500E0,1.216220856E0,-7.534432068E0,3.141666870E0,8.253298158E0
6.844502500E0,1.595681763E0,-9.589807892E0,3.204386444E0,1.023614714E1
6.854451500E0,1.976190491E0,-1.194501022E1,3.035687256E0,1.248214706E1
6.864401500E0,2.334844666E0,-1.389740021E1,2.694995728E0,1.434755150E1
6.874351500E0,2.584375763E0,-1.485660553E1,2.202968903E0,1.523977683E1
6.884300500E0,2.622097321E0,-1.474224335E1,1.805395660E0,1.508206175E1
6.894250500E0,2.234852600E0,-1.347887054E1,1.590891724E0,1.375519734E1
6.904199500E0,1.530567169E0,-1.173245224E1,1.704655151E0,1.195403365E1
6.914149500E0,9.120533752E-1,-1.024005569E1,1.958377533E0,1.046545864E1
6.924098500E0,4.590953064E-1,-9.019044800E0,2.087409210E0,9.268830283E0
6.934048500E0,1.730401611E-1,-7.997269592E0,2.106719055E0,8.271912053E0
6.943997500E0,-2.335144043E-2,-7.237749023E0,2.062411194E0,7.525895040E0
6.953947500E0,-7.798782349E-2,-6.926995239E0,2.104174347E0,7.239951300E0
6.963896500E0,-5.358856201E-2,-7.081024933E0,2.258204041E0,7.432581740E0
6.973846500E0,2.395019531E-2,-7.661068726E0,2.411485291E0,8.031675351E0
6.983795500E0,2.704875183E-1,-8.432414703E0,2.439626770E0,8.782400583E0
6.993745500E0,6.385720825E-1,-9.178014221E0,2.393672333E0,9.506491813E0
7.003694500E0,9.303153992E-1,-9.810898132E0,2.326611786E0,1.012582497E1
7.013644500E0,1.058299255E0,-1.031445099E1,2.363435211E0,1.063455324E1
7.023593500E0,1.115630035E0,-1.053000275E1,2.467319183E0,1.087259179E1
7.033543500E0,1.011596375E0,-1.040052200E1,2.610122223E0,1.077065101E1
7.043493500E0,8.066725159E-1,-9.929152222E0,2.772384796E0,1.034044979E1
7.053442500E0,7.571255493E-1,-9.330397339E0,2.848875732E0,9.784970441E0
7.063392500E0,9.199868774E-1,-8.844058685E0,2.799628143E0,9.322106394E0
7.073341500E0,1.147214355E0,-8.501570892E0,2.714754639E0,8.997927604E0
7.083291500E0,1.393452301E0,-8.348888397E0,2.683320007E0,8.879518740E0
7.093240500E0,1.614841919E0,-8.359216919E0,2.723885651E0,8.938891148E0
7.103190500E0,1.815424805E0,-8.532556458E0,2.830464020E0,9.171249287E0
7.113139500E0,2.014510803E0,-8.773255920E0,2.930156708E0,9.466471970E0
7.123089500E0,2.239043884E0,-9.056916046E0,2.974464569E0,9.792266605E0
7.133038500E0,2.513423309E0,-9.329199829E0,2.990481262E0,1.011406171E1
7.142988500E0,2.786455536E0,-9.566905518E0,2.996169434E0,1.040514521E1
7.152937500E0,3.052003326E0,-9.737251282E0,3.003504181E0,1.063719062E1
7.162887500E0,3.270848236E0,-9.842931519E0,3.020119629E0,1.080291033E1
7.172836500E0,3.436853027E0,-9.871522064E0,3.025957489E0,1.088188060E1
7.182786500E0,3.561094666E0,-9.768685913E0,3.040926361E0,1.083309064E1
7.192735500E0,3.622467041E0,-9.578281860E0,3.016676788E0,1.067549014E1
7.202685500E0,3.647914124E0,-9.300758972E0,2.954705658E0,1.041833386E1
7.212635500E0,3.636238403E0,-9.008267212E0,2.909349976E0,1.014078030E1
7.222584500E0,3.631598053E0,-8.765322418E0,2.870281219E0,9.912512083E0
7.232534500E0,3.630999298E0,-8.613088989E0,2.780917053E0,9.752074523E0
7.242483500E0,3.646117859E0,-8.535250854E0,2.686762848E0,9.662472623E0
7.252433500E0,3.681743774E0,-8.491242371E0,2.672692108E0,9.633260991E0
7.262382500E0,3.714824982E0,-8.481063538E0,2.682421875E0,9.639696597E0
7.272332500E0,3.752845917E0,-8.477471008E0,2.688259735E0,9.652880791E0
7.282281500E0,3.849245453E0,-8.531658325E0,2.734363861E0,9.751032256E0
7.292231500E0,3.967798920E0,-8.688382416E0,2.793490906E0,9.951633469E0
7.302180500E0,4.098626862E0,-8.849297791E0,2.837200012E0,1.015669816E1
7.312130500E0,4.200115814E0,-8.990304565E0,2.952011261E0,1.035282181E1
7.322079500E0,4.306394806E0,-9.061107330E0,3.165018311E0,1.051979292E1
7.332029500E0,4.389322357E0,-9.050030365E0,3.324436798E0,1.059344516E1
7.341978500E0,4.469106445E0,-8.858877869E0,3.342249756E0,1.047011284E1
7.351928500E0,4.534221039E0,-8.517737274E0,3.264710999E0,1.018672404E1
7.361877500E0,4.533921661E0,-8.111631775E0,3.196602631E0,9.827170705E0
7.371827500E0,4.517755280E0,-7.763006744E0,3.166215820E0,9.523618488E0
7.381777500E0,4.511767731E0,-7.551945648E0,3.163072357E0,9.348420073E0
7.391726500E0,4.527485046E0,-7.474855957E0,3.214415588E0,9.311501490E0
7.401676500E0,4.530628510E0,-7.481591949E0,3.207380219E0,9.316013131E0
7.411625500E0,4.513114929E0,-7.522606659E0,3.166365509E0,9.326504589E0
7.421575500E0,4.413272552E0,-7.564519501E0,3.100951538E0,9.290577503E0
7.431524500E0,4.215084686E0,-7.688012695E0,3.039429474E0,9.279580251E0
7.441474500E0,4.036955109E0,-7.819140015E0,3.055745544E0,9.315231503E0
7.451423500E0,3.890110474E0,-7.921377411E0,2.934497681E0,9.300132054E0
7.461373500E0,3.783681793E0,-8.094118195E0,2.786455536E0,9.359237774E0
7.471322500E0,3.678750000E0,-8.328381042E0,2.682421875E0,9.491602576E0
7.481272500E0,3.524420929E0,-8.595126343E0,2.588117981E0,9.643448264E0
7.491221500E0,3.330274658E0,-8.818910980E0,2.582429810E0,9.774091461E0
7.501171500E0,3.151246948E0,-9.093140717E0,2.739902344E0,1.000612964E1
7.511120500E0,3.031346283E0,-9.513766022E0,3.045716400E0,1.043921418E1
7.521070500E0,3.097209320E0,-1.014605118E1,3.460653534E0,1.115845791E1
7.531019500E0,3.381019135E0,-1.099059494E1,3.796255646E0,1.210933625E1
7.540969500E0,3.830384674E0,-1.198422867E1,3.930526428E0,1.318114644E1
7.550919500E0,4.449048157E0,-1.309656555E1,3.988006897E0,1.439507755E1
7.560871625E0,5.076692963E0,-1.408930115E1,4.083358612E0,1.552272643E1
7.570821625E0,5.503006439E0,-1.469703735E1,4.191882935E0,1.624370245E1
7.580770625E0,5.540129242E0,-1.463731155E1,4.040098572E0,1.616373466E1
7.590720625E0,4.990322571E0,-1.353500381E1,3.704047394E0,1.489360986E1
7.600669625E0,4.117188263E0,-1.196327225E1,3.335813141E0,1.308429484E1
7.610619625E0,3.201542358E0,-1.064556244E1,2.898273010E0,1.148816171E1
7.620568625E0,2.398162994E0,-9.664352875E0,2.406395874E0,1.024410286E1
7.630518625E0,1.720522156E0,-9.132957916E0,1.812431030E0,9.468686447E0
7.640467625E0,1.110390930E0,-9.390123138E0,1.343156891E0,9.550468628E0
7.650417625E0,8.181985474E-1,-1.053778656E1,1.126108246E0,1.062932332E1
7.660366625E0,9.800120544E-1,-1.169308411E1,7.200027466E-1,1.175614918E1
7.670316625E0,1.142574005E0,-1.247475861E1,2.679428101E-2,1.252700266E1
7.680265625E0,8.568182373E-1,-1.325778030E1,-7.092251587E-1,1.330435554E1
7.690215625E0,2.007325745E-1,-1.408151733E1,-1.926942902E0,1.421416663E1
7.700165625E0,-2.065404968E0,-1.557945236E1,-1.005459137E1,1.865690331E1
7.710114625E0,-3.549568634E0,-1.664448761E1,-1.295570847E1,2.138898752E1
7.720064625E0,-1.102457428E0,-1.492426483E1,-5.262456665E0,1.586324504E1
7.730013625E0,4.526586914E-1,-1.312335983E1,-8.446934509E-1,1.315830461E1
7.739963625E0,7.273374939E-1,-1.179891403E1,6.599775696E-1,1.183971970E1
7.749912625E0,5.135820007E-1,-1.072789124E1,6.042933655E-1,1.075716446E1
7.759862625E0,3.460803223E-1,-9.706415405E0,2.324665833E-1,9.715364755E0
7.769811625E0,2.704875183E-1,-8.676706696E0,-8.981323242E-4,8.680921805E0
7.779761625E0,2.809657288E-1,-7.764204254E0,-1.025367737E-1,7.769962885E0
7.789710625E0,4.358935547E-1,-6.973548431E0,-4.116439819E-2,6.987279544E0
7.799660625E0,5.915698242E-1,-6.450685730E0,1.324745178E-1,6.479108792E0
7.809609625E0,6.914122009E-1,-6.173611908E0,2.874023438E-1,6.218853184E0
7.819559625E0,7.686515808E-1,-6.064189453E0,4.114942932E-1,6.126544420E0
7.829508625E0,8.900491333E-1,-6.113886108E0,6.030958557E-1,6.207698077E0
7.839458625E0,1.102307739E0,-6.226601715E0,8.219407654E-1,6.376616492E0
7.849407625E0,1.384920044E0,-6.352789307E0,9.876461792E-1,6.576578174E0
7.859357625E0,1.693877563E0,-6.475084991E0,1.058149567E0,6.776107094E0
7.869306625E0,1.973346405E0,-6.559359741E0,1.086590424E0,6.935414551E0
7.879256625E0,2.239043884E0,-6.643484802E0,1.128802643E0,7.100943827E0
7.889206625E0,2.492317200E0,-6.690187683E0,1.214723969E0,7.241947982E0
7.899155625E0,2.729274445E0,-6.750212860E0,1.270707550E0,7.391144047E0
7.909105625E0,2.980901184E0,-6.863976288E0,1.325643311E0,7.599820559E0
7.919054625E0,3.232378235E0,-7.064708862E0,1.334924011E0,7.882918399E0
7.929004625E0,3.524720306E0,-7.257058868E0,1.324445801E0,8.175739314E0
7.938953625E0,3.798051910E0,-7.551047516E0,1.281036072E0,8.548951416E0
7.948903625E0,4.109703827E0,-7.848928070E0,1.071920929E0,8.924368430E0
7.958852625E0,4.520000610E0,-8.116870880E0,2.884501648E-1,9.295009516E0
7.968802625E0,4.928201752E0,-8.108787689E0,-2.784210205E-2,9.488961243E0
7.978751625E0,5.107079773E0,-7.775430908E0,7.485932922E-1,9.332737087E0
7.988701625E0,5.102289734E0,-7.384893036E0,1.515897675E0,9.103183588E0
7.998650625E0,5.037474518E0,-6.923702087E0,1.882036285E0,8.766747441E0
8.008600625E0,4.911735992E0,-6.347699890E0,2.023941193E0,8.277365662E0
8.018549625E0,4.760101318E0,-5.775589600E0,2.039658508E0,7.757332442E0
8.028499625E0,4.756059723E0,-5.281317444E0,1.966011658E0,7.374118243E0
8.038448625E0,4.947661285E0,-5.023254089E0,1.881138153E0,7.297336130E0
8.048398625E0,5.226681061E0,-5.006339264E0,1.825603638E0,7.464211705E0
8.058348625E0,5.591322784E0,-5.264851685E0,1.650916901E0,7.855385436E0
8.068297625E0,6.281687164E0,-5.682932281E0,1.538500671E0,8.609430716E0
8.078247625E0,7.159012756E0,-6.157146149E0,1.513053589E0,9.563014352E0
8.088196625E0,8.028704224E0,-6.719376984E0,1.580563202E0,1.058812064E1
8.098146625E0,8.952433319E0,-7.396419067E0,1.681603088E0,1.173374903E1
8.108095625E0,1.005578888E1,-8.213120728E0,1.687440948E0,1.309281097E1
8.118045625E0,1.119881195E1,-9.023984528E0,1.647923126E0,1.447623350E1
8.127994625E0,1.223331070E1,-9.507030029E0,1.653760986E0,1.558115644E1
8.137944625E0,1.298504745E1,-9.481433258E0,1.420096893E0,1.614080882E1
8.147893625E0,1.349907852E1,-9.018895111E0,1.417552185E-1,1.623532212E1
8.157843625E0,1.367151993E1,-8.126301270E0,-9.111552429E-1,1.593039338E1
8.167792625E0,1.358814331E1,-7.049739990E0,1.074914703E0,1.534574580E1
8.177742625E0,1.350252136E1,-6.055956573E0,3.851041718E0,1.529127907E1
8.187691625E0,1.347258362E1,-4.956193542E0,4.773722992E0,1.512821189E1
8.197641625E0,1.283775375E1,-4.118984528E0,3.483705597E0,1.392516282E1
8.207590625E0,1.075049423E1,-4.962480469E0,8.424481201E-1,1.187051210E1
8.217540625E0,8.103847961E0,-7.284152527E0,-6.801855469E-1,1.091759507E1
8.227490625E0,6.601422272E0,-8.804091797E0,-6.873706055E-1,1.102557421E1
8.237439625E0,5.775589600E0,-9.684860229E0,-2.814147949E-1,1.127976716E1
8.247389625E0,5.483995972E0,-1.059092606E1,-6.092330933E-2,1.192667758E1
8.257338625E0,5.613925781E0,-1.194935120E1,-3.510200500E-1,1.320705765E1
8.267288625E0,5.588628387E0,-1.435320236E1,-1.683249664E0,1.549453177E1
8.277237625E0,5.635331268E0,-1.737886047E1,-1.228944397E0,1.831098179E1
8.287187625E0,6.192622375E0,-1.870600067E1,1.636696472E0,1.977224844E1
8.297136625E0,6.148464203E0,-1.775293259E1,2.667752380E0,1.897596191E1
8.307086625E0,5.167703705E0,-1.390308838E1,1.823657684E0,1.494412110E1
8.317035625E0,4.162993011E0,-9.946366425E0,9.057664490E-1,1.082040335E1
8.326985625E0,3.397634583E0,-7.682324524E0,5.819897461E-1,8.420257889E0
8.336934625E0,2.936892700E0,-6.057902527E0,4.703219604E-1,6.748683168E0
8.346884625E0,2.587219849E0,-4.746180267E0,3.927832031E-1,5.419798181E0
8.356833625E0,2.248174896E0,-3.870650940E0,4.963677979E-1,4.503621882E0
8.366783625E0,2.051783295E0,-3.515439606E0,6.927593994E-1,4.128927935E0
8.376732625E0,1.899250488E0,-3.897594910E0,1.007405090E0,4.451209219E0
8.386682625E0,1.895358582E0,-4.760700073E0,1.547781372E0,5.352782129E0
8.396632625E0,2.220931549E0,-6.125112762E0,2.231110382E0,6.886755175E0
8.406581625E0,2.740501099E0,-8.089477844E0,2.919528809E0,9.026275341E0
8.416531625E0,3.293451233E0,-1.009740234E1,3.546874237E0,1.119752973E1
8.426480625E0,3.808081055E0,-1.168125870E1,3.751049652E0,1.284615349E1
8.436430625E0,4.238136749E0,-1.248344055E1,3.469934235E0,1.363226081E1
8.446379625E0,4.503983917E0,-1.247281265E1,2.911295929E0,1.357691315E1
8.456329625E0,4.456382904E0,-1.165446442E1,2.240241394E0,1.267693066E1
8.466278625E0,4.006418610E0,-1.028316605E1,1.788031769E0,1.117997995E1
8.476228625E0,3.317850494E0,-8.884774017E0,1.579216003E0,9.614638029E0
8.486177625E0,2.746937714E0,-7.883955231E0,1.551822968E0,8.491794357E0
8.496127625E0,2.322719879E0,-7.270231476E0,1.734592896E0,7.826883534E0
8.506076625E0,2.111509094E0,-6.896159363E0,2.076182556E0,7.505066197E0
8.516026625E0,2.097588043E0,-6.889872437E0,2.546953583E0,7.639187807E0
8.525975625E0,2.171534271E0,-7.214098206E0,3.035537567E0,8.122392648E0
8.535925625E0,2.237846375E0,-7.695347443E0,3.363355865E0,8.691288244E0
8.545874625E0,2.267634430E0,-8.210426331E0,3.370540924E0,9.160448273E0
8.555824625E0,2.374811554E0,-8.616980896E0,3.069516907E0,9.450609701E0
8.565770042E0,2.567760315E0,-8.878936157E0,2.615361328E0,9.605676197E0
8.575720042E0,2.707569580E0,-8.984167328E0,2.125280457E0,9.620967344E0
8.585670042E0,2.800077209E0,-8.981622620E0,1.663640442E0,9.553935146E0
8.595619042E0,2.918930054E0,-8.938063202E0,1.327738953E0,9.495894754E0
8.605569042E0,3.094514923E0,-8.838520203E0,1.204694824E0,9.441755748E0
8.615518042E0,3.282374268E0,-8.785380707E0,1.283580780E0,9.465964009E0
8.625468042E0,3.457659760E0,-8.817563782E0,1.467697906E0,9.584309010E0
8.635417042E0,3.657793579E0,-8.891959076E0,1.718576202E0,9.767286944E0
8.645367042E0,3.894750824E0,-9.009464722E0,1.978435822E0,1.001267930E1
8.655316042E0,4.159849548E0,-9.092092896E0,2.171534271E0,1.023162072E1
8.665266042E0,4.432582397E0,-9.118887177E0,2.252665558E0,1.038635606E1
8.675215042E0,4.704716492E0,-9.104067993E0,2.265538788E0,1.049528834E1
8.685165042E0,4.947361908E0,-9.070238342E0,2.178719330E0,1.055899765E1
8.695114042E0,5.185067596E0,-9.054221649E0,2.017953644E0,1.062713473E1
8.705064042E0,5.402864685E0,-9.038354645E0,1.807940369E0,1.068416819E1
8.715013042E0,5.549260254E0,-9.023086395E0,1.626966705E0,1.071715439E1
8.724963042E0,5.613925781E0,-8.969647522E0,1.525477753E0,1.069101593E1
8.734912042E0,5.668262787E0,-8.808283081E0,1.484013977E0,1.057909974E1
8.744862042E0,5.770500183E0,-8.505612488E0,1.471589813E0,1.038314465E1
8.754811042E0,5.990692291E0,-8.052804108E0,1.950893097E0,1.022457980E1
8.764761042E0,6.429280243E0,-7.509284363E0,1.913470917E0,1.006907975E1
8.774711042E0,6.106251984E0,-7.079078979E0,-3.164419556E-1,9.354133204E0
8.784660042E0,5.563929749E0,-6.894662476E0,-1.780098267E0,9.036726993E0
8.794610042E0,5.306016083E0,-7.119345245E0,-1.966610413E0,9.094308105E0
8.804559042E0,5.076393585E0,-7.475604401E0,-1.252146149E0,9.122625881E0
8.814509042E0,4.938979340E0,-7.786956940E0,-4.432283020E-1,9.231828997E0
8.824458042E0,4.964276733E0,-7.965385895E0,1.190025330E-1,9.386457135E0
8.834408042E0,5.012476501E0,-8.039332123E0,6.852749634E-1,9.498704303E0
8.844357042E0,5.011278992E0,-8.008496246E0,1.253643036E0,9.529981643E0
8.854307042E0,5.046306152E0,-7.915539551E0,1.819765778E0,9.562035330E0
8.864256042E0,5.062921600E0,-7.796836395E0,2.223625946E0,9.558679054E0
8.874206042E0,4.996160431E0,-7.670948181E0,2.536625061E0,9.499449023E0
8.884155042E0,4.829556885E0,-7.594906311E0,2.604733429E0,9.369730936E0
8.894105042E0,4.587210846E0,-7.609126740E0,2.381098480E0,9.198420683E0
8.904054042E0,4.411027222E0,-7.786956940E0,1.970053253E0,9.163785754E0
8.914004042E0,4.399650879E0,-8.143365784E0,1.628014526E0,9.397966027E0
8.923953042E0,4.497547302E0,-8.552764435E0,1.456022186E0,9.772293069E0
8.933903042E0,4.639901276E0,-8.907377014E0,1.495240631E0,1.015410231E1
8.943852042E0,4.781057739E0,-9.186097412E0,1.695224762E0,1.049364978E1
8.953802042E0,4.902754669E0,-9.330846405E0,1.942959595E0,1.071805906E1
8.963752042E0,5.000052338E0,-9.285790100E0,2.157912598E0,1.076489702E1
8.973701042E0,4.949457550E0,-9.011710052E0,2.303559723E0,1.053633881E1
8.983651042E0,4.737498322E0,-8.548423462E0,2.324815521E0,1.004610378E1
8.993600042E0,4.482129364E0,-8.089777222E0,2.243684235E0,9.516727278E0
9.003550042E0,4.210144958E0,-7.806566162E0,2.149829407E0,9.126311538E0
9.013499042E0,4.011657715E0,-7.717052307E0,2.090253296E0,8.945135705E0
9.023449042E0,3.926634521E0,-7.733518066E0,2.069296875E0,8.916711833E0
9.033398042E0,3.922892303E0,-7.890092468E0,2.077829132E0,9.053177182E0
9.043348042E0,4.100423126E0,-8.237669678E0,2.155367889E0,9.450835004E0
9.053297042E0,4.539011078E0,-8.845555573E0,2.289938049E0,1.020246496E1
9.063247042E0,5.209317169E0,-9.754914551E0,2.463127899E0,1.132971060E1
9.073196042E0,6.050567780E0,-1.104852448E1,2.600242767E0,1.286236860E1
9.083146042E0,7.022796021E0,-1.266935394E1,2.698438568E0,1.473478076E1
9.093095042E0,7.808362427E0,-1.390308838E1,2.721640320E0,1.617633198E1
9.103045042E0,8.231981506E0,-1.453417603E1,2.750380554E0,1.692844900E1
9.112994042E0,8.210426331E0,-1.440888657E1,2.646346893E0,1.679375671E1
9.122944042E0,7.473808136E0,-1.309476929E1,2.076481934E0,1.521980841E1
9.132893042E0,6.241570587E0,-1.133772308E1,1.433119812E0,1.302132868E1
9.142843042E0,4.943470001E0,-9.722132721E0,1.089135132E0,1.096102074E1
9.152793042E0,3.810925140E0,-8.285420380E0,9.346563721E-1,9.167601858E0
9.162742042E0,2.930755463E0,-7.150929565E0,8.503816223E-1,7.774848560E0
9.172692042E0,2.330354004E0,-6.456074524E0,8.128097534E-1,6.911736955E0
9.182641042E0,2.024839325E0,-6.287075958E0,8.240364075E-1,6.656300354E0
9.192591042E0,1.994901581E0,-6.769971771E0,8.768765259E-1,7.112036455E0
9.202540042E0,2.408641205E0,-7.952512665E0,1.155596924E0,8.389243970E0
9.212490042E0,3.408561859E0,-9.909093933E0,2.356998596E0,1.074075784E1
9.222439042E0,4.359384613E0,-1.062415695E1,9.756710815E-1,1.152514118E1
9.232389042E0,4.500541077E0,-1.004216721E1,-2.634222107E0,1.131543717E1
9.242338042E0,5.376669159E0,-1.106933121E1,-1.394155838E1,1.859585208E1
9.252288042E0,5.942342834E0,-1.239692047E1,-9.505533142E0,1.671377384E1
9.262237042E0,5.676196289E0,-1.265139130E1,-2.046095123E0,1.401654063E1
9.272187042E0,5.468128967E0,-1.247415985E1,1.924697571E0,1.375534657E1
9.282136042E0,5.149591370E0,-1.180699722E1,3.658242645E0,1.339052702E1
9.292086042E0,4.550686798E0,-1.066142944E1,3.253184967E0,1.203985218E1
9.302035042E0,4.087849274E0,-9.472152557E0,2.072440338E0,1.052269902E1
9.311985042E0,3.670367432E0,-8.528514862E0,9.912387085E-1,9.337543414E0
9.321934042E0,3.236270142E0,-7.713459778E0,8.681945801E-2,8.365311936E0
9.331884042E0,2.870281219E0,-7.021448822E0,-4.061054993E-1,7.596326712E0
9.341833042E0,2.686762848E0,-6.547384644E0,-3.854484558E-1,7.087701375E0
9.351783042E0,2.677781525E0,-6.355034637E0,-1.489402771E-1,6.897765025E0
9.361733042E0,2.820434875E0,-6.401737518E0,1.146615601E-1,6.996445055E0
9.371682042E0,3.047512665E0,-6.598428497E0,3.198847961E-1,7.275226344E0
9.381632042E0,3.284769287E0,-6.918462982E0,4.866380310E-1,7.674089906E0
9.391581042E0,3.510200500E0,-7.275769958E0,5.942642212E-1,8.100091728E0
9.401531042E0,3.786226501E0,-7.594008179E0,6.310876465E-1,8.508980136E0
9.411480042E0,4.076173553E0,-7.765701141E0,5.357359314E-1,8.786826392E0
9.421430042E0,4.297563171E0,-7.742200012E0,3.333567810E-1,8.861254820E0
9.431379042E0,4.431534576E0,-7.582631836E0,1.175056458E-1,8.783428251E0
9.441329042E0,4.484973450E0,-7.323071594E0,-5.837860107E-2,8.587535879E0
9.451278042E0,4.524491272E0,-7.088659058E0,-1.064286804E-1,8.410198307E0
9.461228042E0,4.582121429E0,-6.841073914E0,-2.454895020E-2,8.233877078E0
9.471177042E0,4.669539642E0,-6.568191376E0,6.990463257E-2,8.059195064E0
9.481127042E0,4.801565094E0,-6.303242340E0,1.435514832E-1,7.925055103E0
9.491076042E0,5.010680237E0,-6.050867157E0,8.921447754E-2,7.856708535E0
9.501026042E0,5.272036743E0,-5.865552521E0,-4.385879517E-2,7.886761147E0
9.510975042E0,5.478756866E0,-5.817203064E0,7.933502197E-2,7.991428054E0
9.520925042E0,5.571563873E0,-5.833369446E0,3.737727356E-1,8.075285081E0
9.530874042E0,5.593568115E0,-5.891149292E0,6.716532898E-1,8.151365676E0
9.540824042E0,5.561534729E0,-6.000122681E0,8.884025574E-1,8.229301297E0
9.550774042E0,5.517825623E0,-6.062991943E0,9.280700684E-1,8.250308174E0
9.560723042E0,5.458997955E0,-6.077960815E0,7.866142273E-1,8.207376456E0
9.570677250E0,5.360652466E0,-6.122867432E0,5.816903687E-1,8.158704807E0
9.580626250E0,5.254373474E0,-6.207740936E0,4.314028931E-1,8.144359803E0
9.590576250E0,5.223836975E0,-6.266269226E0,3.326083374E-1,8.164877896E0
9.600525250E0,5.330565033E0,-6.351741486E0,2.520758057E-1,8.295968038E0
9.610475250E0,5.572012939E0,-6.467301178E0,1.939965820E-1,8.538790746E0
9.620424250E0,5.902825012E0,-6.568490753E0,3.124003601E-1,8.836628762E0
9.630374250E0,6.305487671E0,-6.720275116E0,5.956114197E-1,9.234501901E0
9.640323250E0,6.795568542E0,-6.976841583E0,9.048683167E-1,9.781352512E0
9.650273250E0,7.313940582E0,-7.296726379E0,1.258732452E0,1.040770628E1
9.660222250E0,7.813451843E0,-7.630232849E0,1.683549042E0,1.105010500E1
9.670172250E0,8.439599762E0,-8.017627258E0,2.001487885E0,1.181165292E1
9.680121250E0,9.064699860E0,-8.443641357E0,2.070793762E0,1.255993829E1
9.690071250E0,9.825867004E0,-8.733887787E0,1.722767487E0,1.325882295E1
9.700020250E0,1.046234344E1,-8.571924591E0,9.648934937E-1,1.355985033E1
9.709970250E0,1.095257401E1,-7.979007568E0,-1.606159973E-1,1.355172449E1
9.719919250E0,1.145178589E1,-7.001091156E0,-1.212328949E0,1.347695881E1
9.729869250E0,1.174472672E1,-5.973328400E0,-7.295828247E-1,1.319664915E1
9.739818250E0,1.168679718E1,-5.103487244E0,1.427132263E0,1.283212831E1
9.749768250E0,1.153516251E1,-4.383933563E0,2.878813477E0,1.267148036E1
9.759718250E0,1.140343643E1,-3.756737823E0,2.760559387E0,1.231958318E1
9.769667250E0,1.114851654E1,-3.392096100E0,1.620829468E0,1.176532299E1
9.779617250E0,9.765093384E0,-3.592229919E0,2.999761963E-1,1.040918586E1
9.789566250E0,7.561226349E0,-4.688400421E0,-3.237767029E-1,8.902700363E0
9.799516250E0,6.168971558E0,-6.098917236E0,2.529739380E-2,8.674885676E0
9.809465250E0,5.744903412E0,-7.629933472E0,1.010997620E0,9.604265520E0
9.819415250E0,5.823639679E0,-9.261690216E0,1.584455109E0,1.105460007E1
9.829364250E0,6.023773499E0,-1.071112610E1,1.640139313E0,1.239774683E1
9.839314250E0,6.477629700E0,-1.186762115E1,1.605112152E0,1.361530401E1
9.849263250E0,7.507488098E0,-1.317081116E1,1.864073639E0,1.527440390E1
9.859213250E0,8.859177246E0,-1.491782822E1,1.814826050E0,1.744477612E1
9.869162250E0,1.011626312E1,-1.706226883E1,1.138981476E0,1.986849456E1
9.879112250E0,1.087368805E1,-1.907797714E1,5.703140259E-2,2.195927039E1
9.889061250E0,1.039198975E1,-1.902857986E1,-1.185534668E-1,2.168165947E1
9.899011250E0,8.120164032E0,-1.496662674E1,7.220983887E-1,1.704284031E1
9.908960250E0,5.544170837E0,-1.033016830E1,6.533912659E-1,1.174210916E1
9.918910250E0,3.521127777E0,-7.287295990E0,-8.053253174E-2,8.093794484E0
9.928859250E0,2.026336212E0,-5.276377716E0,-6.830296326E-1,5.693217871E0
9.938809250E0,1.316212921E0,-3.980821838E0,-1.389111328E-1,4.195075120E0
9.948759250E0,1.204844513E0,-3.273093567E0,6.400689697E-1,3.546051337E0
9.958708250E0,1.182690582E0,-3.162024536E0,1.081201630E0,3.544877028E0
9.968658250E0,1.152902527E0,-3.667822723E0,1.528770905E0,4.137541329E0
9.978607250E0,1.149759064E0,-4.680466919E0,2.020198975E0,5.225889434E0
9.988557250E0,1.294208679E0,-5.935756531E0,2.440225525E0,6.546975050E0
9.998506250E0,1.730700989E0,-7.483837280E0,2.931952972E0,8.221891180E0
1.000845625E1,2.273172913E0,-9.133257294E0,3.330873413E0,9.983908131E0
1.001840525E1,2.805466003E0,-1.033675461E1,3.393143921E0,1.123532647E1
1.002835525E1,3.201392670E0,-1.099179245E1,3.188968506E0,1.188435679E1
1.003830425E1,3.516337738E0,-1.122680374E1,2.651885376E0,1.205977816E1
1.004825425E1,3.794609070E0,-1.104044128E1,1.901944885E0,1.182826260E1
1.005820325E1,4.046235809E0,-1.052700897E1,1.129102020E0,1.133423193E1
1.006815325E1,4.026027832E0,-9.872869263E0,5.554948425E-1,1.067665782E1
1.007810225E1,3.716920624E0,-9.063352661E0,2.857557678E-1,9.800077385E0
1.008805225E1,3.391946411E0,-8.233927460E0,1.919009399E-1,8.907282854E0
1.009800125E1,3.152145081E0,-7.653733978E0,1.685494995E-1,8.279134698E0
1.010795125E1,3.095862122E0,-7.435338135E0,2.408491516E-1,8.057705863E0
1.011790025E1,3.269501038E0,-7.637268219E0,4.897814941E-1,8.322102426E0
1.012785025E1,3.578907623E0,-7.894433441E0,9.210346985E-1,8.716591309E0
1.013779925E1,3.793561249E0,-7.950716400E0,1.364412689E0,8.914405208E0
1.014774925E1,3.994293823E0,-8.380023651E0,1.817520447E0,9.459522193E0
1.015769925E1,4.168082428E0,-8.581804047E0,2.226170654E0,9.796739641E0
1.016764825E1,4.211043091E0,-8.688681793E0,2.480940857E0,9.969009116E0
1.017759825E1,4.093986511E0,-8.304131470E0,2.432890778E0,9.572788651E0
1.018754725E1,3.889661407E0,-7.770341492E0,2.020348663E0,8.921293711E0
1.019749725E1,3.995491333E0,-7.912545776E0,1.705702972E0,9.026724449E0
1.020744625E1,4.201612701E0,-8.192763062E0,1.492995300E0,9.327590838E0
1.021739625E1,4.410278778E0,-8.368647308E0,1.275198212E0,9.545205454E0
1.022734525E1,4.682113495E0,-8.625363464E0,1.168919220E0,9.883595187E0
1.023729525E1,4.996160431E0,-8.972341919E0,1.189576263E0,1.033826050E1
1.024724425E1,5.315147095E0,-9.248667297E0,1.206042023E0,1.073513730E1
1.025719425E1,5.573809204E0,-9.373657379E0,1.146465912E0,1.096572778E1
1.026714325E1,5.755830688E0,-9.341623993E0,1.053060150E0,1.102290621E1
1.027709325E1,5.852529602E0,-9.156159668E0,9.473799133E-1,1.090801959E1
1.028704225E1,5.902974701E0,-8.950337677E0,8.713380432E-1,1.075699237E1
1.029699225E1,5.856421509E0,-8.713679810E0,8.635542297E-1,1.053430656E1
1.030694125E1,5.773643646E0,-8.553363190E0,9.205856323E-1,1.036062067E1
1.031689125E1,5.699697418E0,-8.455616455E0,1.038989410E0,1.025004875E1
1.032684025E1,5.633235626E0,-8.309669952E0,1.155896301E0,1.010544678E1
1.033679025E1,5.556894379E0,-8.100554810E0,1.148112488E0,9.890208574E0
1.034673925E1,5.532195740E0,-7.854017487E0,8.834628296E-1,9.647346109E0
1.035668925E1,5.369184723E0,-7.520511017E0,5.432203674E-1,9.256420416E0
1.036663925E1,4.999752960E0,-7.359146576E0,2.812651062E-1,8.901330128E0
1.037658825E1,4.593946838E0,-7.470814362E0,2.362088013E-1,8.773437717E0
1.038653825E1,4.378694458E0,-7.756570129E0,5.701643372E-1,8.925381376E0
1.039648725E1,4.376299438E0,-8.029602356E0,1.120569763E0,9.213152955E0
1.040643725E1,4.550537109E0,-8.258177032E0,1.591640167E0,9.562332054E0
1.041638625E1,4.836442566E0,-8.630303192E0,1.883233795E0,1.007074374E1
1.042633625E1,5.043761444E0,-8.875193939E0,1.856888580E0,1.037577140E1
1.043628525E1,5.114414520E0,-8.851243744E0,1.553619232E0,1.033999441E1
1.044623525E1,5.061275024E0,-8.728948059E0,1.166075134E0,1.015730133E1
1.045618425E1,5.010231171E0,-8.689280548E0,8.927435303E-1,1.006990585E1
1.046613425E1,4.928052063E0,-8.765921173E0,7.289840698E-1,1.008258344E1
1.047608325E1,4.814887390E0,-8.806486816E0,6.483018494E-1,1.005771574E1
1.048603325E1,4.680766296E0,-8.722661133E0,6.101312256E-1,9.917996293E0
1.049598225E1,4.555177460E0,-8.596473541E0,6.599775696E-1,9.751131700E0
1.050593225E1,4.464615784E0,-8.489296417E0,7.969427490E-1,9.624763140E0
1.051588125E1,4.428241425E0,-8.435408478E0,9.871971130E-1,9.578099835E0
1.052583125E1,4.414619751E0,-8.321345673E0,1.157692566E0,9.490727761E0
1.053578025E1,4.419110413E0,-8.191116486E0,1.267863464E0,9.393104060E0
1.054573025E1,4.523892517E0,-8.276139679E0,1.351240082E0,9.528165681E0
1.055567925E1,4.727169800E0,-8.369545441E0,1.412013702E0,9.715410845E0
1.056562517E1,4.566404114E0,-7.826175385E0,1.220262451E0,9.142762609E0
1.057557417E1,4.386927338E0,-7.436385956E0,1.091380463E0,8.702647808E0
1.058552417E1,4.283941498E0,-7.227869568E0,1.097517700E0,8.473417159E0
1.059547417E1,4.240980835E0,-7.179370422E0,1.239721985E0,8.430076435E0
1.060542317E1,4.382885742E0,-7.392227783E0,1.507515106E0,8.725097181E0
1.061537317E1,4.657714233E0,-7.741451569E0,1.814376984E0,9.215006137E0
1.062532217E1,4.945565643E0,-8.073610840E0,2.106868744E0,9.699520990E0
1.063527217E1,5.221142578E0,-8.413104858E0,2.366279297E0,1.018037037E1
1.064522117E1,5.482648773E0,-8.868308258E0,2.635120239E0,1.075407772E1
1.065517117E1,5.747897186E0,-9.400601349E0,2.833906860E0,1.137719895E1
1.066512017E1,6.016887817E0,-9.932894440E0,2.844385071E0,1.195641491E1
1.067507017E1,6.141728210E0,-1.032298325E1,2.624941406E0,1.229532943E1
1.068501917E1,6.358627167E0,-1.068268524E1,2.287692719E0,1.264062662E1
1.069496917E1,6.809938660E0,-1.117605927E1,2.018253021E0,1.324208860E1
1.070491817E1,7.151228943E0,-1.154459290E1,1.675615540E0,1.368303285E1
1.071486817E1,7.290888519E0,-1.170266418E1,1.278042297E0,1.384712232E1
1.072481717E1,7.241940308E0,-1.165581161E1,1.077160034E0,1.376458926E1
1.073476717E1,7.054979095E0,-1.139984390E1,9.346563721E-1,1.343885239E1
1.074471617E1,6.622229004E0,-1.086021606E1,7.848179626E-1,1.274418099E1
1.075466617E1,5.935157776E0,-1.009096573E1,5.421725464E-1,1.171954087E1
1.076461517E1,5.133125610E0,-9.071884918E0,-1.975891113E-2,1.042345744E1
1.077456517E1,4.114194489E0,-7.983498230E0,-1.637744293E0,9.129350834E0
1.078451417E1,2.986589355E0,-7.427704010E0,-2.816093903E0,8.486512105E0
1.079446417E1,2.461481323E0,-7.662415924E0,-1.721420288E-1,8.049915588E0
1.080441317E1,2.512974243E0,-8.395441589E0,2.028731232E0,8.995233707E0
1.081436317E1,2.867736511E0,-9.386979675E0,3.120411072E0,1.029933325E1
1.082431317E1,3.244802399E0,-1.006491989E1,3.391347656E0,1.110552088E1
1.083426217E1,3.704047394E0,-1.035711227E1,2.838397522E0,1.135985221E1
1.084421217E1,4.145778809E0,-1.023586441E1,1.777104492E0,1.118563823E1
1.085416117E1,4.736450500E0,-1.019589752E1,9.970765686E-1,1.128647205E1
1.086411117E1,5.221441956E0,-1.035441788E1,5.786965942E-1,1.161087057E1
1.087406017E1,5.404960327E0,-1.033406021E1,1.950444031E-1,1.166380894E1
1.088401017E1,5.519921265E0,-1.028017227E1,1.556762695E-2,1.166840671E1
1.089395917E1,5.402565308E0,-1.002839584E1,7.035369873E-2,1.139128547E1
1.090390917E1,5.042713623E0,-9.770631866E0,1.667532349E-1,1.099645463E1
1.091385817E1,4.521497498E0,-9.337283020E0,1.718426514E-1,1.037585291E1
1.092380817E1,3.897295532E0,-8.704997864E0,2.776725769E-1,9.541645683E0
1.093375717E1,3.236270142E0,-8.124804382E0,4.571493530E-1,8.757561088E0
1.094370717E1,2.714604950E0,-7.632777557E0,5.649252319E-1,8.120807459E0
1.095365617E1,2.404599609E0,-7.211703186E0,6.336323547E-1,7.628384631E0
1.096360617E1,2.237247620E0,-6.876699829E0,7.036866760E-1,7.265635030E0
1.097355517E1,2.255210266E0,-6.704108734E0,7.791297913E-1,7.116044582E0
1.098350517E1,2.636168060E0,-6.564149780E0,7.857160950E-1,7.117218148E0
1.099345417E1,3.133733368E0,-6.609505463E0,7.072792053E-1,7.348883667E0
1.100340417E1,3.565136261E0,-6.849157104E0,6.378236389E-1,7.747771847E0
1.101335317E1,4.011208649E0,-7.154522095E0,4.755610657E-1,8.216029428E0
1.102330317E1,4.400099945E0,-7.448810120E0,1.386117554E-1,8.652448494E0
1.103325317E1,4.781057739E0,-7.689958649E0,-5.530998230E-1,9.071929042E0
1.104320217E1,4.951403503E0,-8.031398621E0,-1.576820984E0,9.565883382E0
1.105315217E1,4.949307861E0,-8.952133942E0,-1.432820435E0,1.032905246E1
1.106310117E1,5.072202301E0,-9.887089691E0,-1.625619507E-1,1.111342455E1
1.107305117E1,5.299579468E0,-1.049766998E1,8.060737610E-1,1.178712741E1
1.108300017E1,5.379513245E0,-1.060948746E1,1.044677582E0,1.194117825E1
1.109295017E1,5.201233978E0,-1.010324020E1,-1.428030396E-1,1.136436053E1
1.110289917E1,4.895868988E0,-9.304201813E0,-2.218536530E0,1.074521330E1
1.111284917E1,4.759203186E0,-8.896150360E0,-2.827320557E0,1.047784557E1
1.112279817E1,5.004992065E0,-8.850944366E0,-2.656376038E0,1.050930518E1
1.113274817E1,5.247188416E0,-8.964258728E0,-2.845732269E0,1.076982418E1
1.114269717E1,5.458399200E0,-8.824000397E0,-2.694696350E0,1.072000435E1
1.115264717E1,5.551804962E0,-8.302634583E0,-2.065554657E0,1.019915660E1
1.116259617E1,5.736520844E0,-7.782166901E0,-1.676663361E0,9.812287862E0
1.117254617E1,6.133345642E0,-7.406747589E0,-1.657652893E0,9.758363168E0
1.118249517E1,6.631659393E0,-7.008575592E0,-1.931882629E0,9.840284987E0
1.119244517E1,6.962172089E0,-6.621330872E0,-1.586850128E0,9.738170056E0
1.120239417E1,7.051087189E0,-6.407575378E0,-1.125210114E0,9.593797505E0
1.121234417E1,7.054829407E0,-6.305787048E0,-8.343649292E-1,9.498933261E0
1.122229317E1,6.916067963E0,-6.333180084E0,-4.592449951E-1,9.388933486E0
1.123224317E1,6.737489319E0,-6.383774872E0,1.169068909E-1,9.282241710E0
1.124219217E1,6.498885498E0,-6.372548218E0,7.812254333E-1,9.135381584E0
1.125214217E1,6.301296387E0,-6.260281677E0,1.049018555E0,8.944154670E0
1.126209117E1,6.206393738E0,-5.979765015E0,9.229806519E-1,8.667687474E0
1.127204117E1,6.081104279E0,-5.732778625E0,8.235873413E-1,8.397789955E0
1.128199117E1,5.878425751E0,-5.563780060E0,7.141648865E-1,8.125365798E0
1.129194017E1,5.655688934E0,-5.505102081E0,6.042933655E-1,7.915689276E0
1.130189017E1,5.498815155E0,-5.500761108E0,3.667373657E-1,7.786516370E0
1.131183917E1,5.438640289E0,-5.633085938E0,1.260379028E-1,7.831114284E0
1.132178917E1,5.410498810E0,-6.031707001E0,2.487826538E-1,8.106594817E0
1.133173817E1,5.459297333E0,-6.648274841E0,7.699987793E-1,8.636919813E0
1.134168817E1,5.549709320E0,-7.320676575E0,1.172212372E0,9.260975159E0
1.135163717E1,5.749394073E0,-7.894134064E0,1.203048248E0,9.839726110E0
1.136158717E1,5.954168243E0,-8.172405396E0,7.988887024E-1,1.014290652E1
1.137153617E1,5.952521667E0,-7.943980408E0,-2.424957275E-2,9.926727908E0
1.138148617E1,5.533842316E0,-7.369175720E0,-7.937992859E-1,9.249771828E0
1.139143517E1,4.674329681E0,-6.888225861E0,-7.735913086E-1,8.360350291E0
1.140138517E1,3.957919464E0,-6.783294067E0,-1.935475159E-1,7.855931869E0
1.141133417E1,3.794758759E0,-7.006929016E0,1.737886047E-1,7.970410952E0
1.142128417E1,3.981270905E0,-7.370073853E0,4.141886902E-1,8.386898049E0
1.143123317E1,4.193679199E0,-7.570057983E0,5.989045715E-1,8.674757045E0
1.144118317E1,4.328249359E0,-7.512876892E0,6.873706055E-1,8.697674405E0
1.145113217E1,4.793930969E0,-7.897876282E0,6.297404480E-1,9.260388595E0
1.146108217E1,5.566324768E0,-8.527317352E0,5.201683044E-1,1.019655274E1
1.147103117E1,6.522686005E0,-9.204808502E0,6.644682312E-1,1.130112606E1
1.148098117E1,7.538323975E0,-1.017074982E1,4.430786133E-1,1.266754905E1
1.149093017E1,8.536448364E0,-1.139894577E1,-1.678010559E-1,1.424201785E1
1.150088017E1,8.887019348E0,-1.233719467E1,-7.213499451E-1,1.522188658E1
1.151082917E1,8.577762451E0,-1.254092102E1,-5.650749207E-1,1.520434209E1
1.152077917E1,8.301137695E0,-1.184636536E1,4.834945679E-1,1.447339028E1
1.153072917E1,7.615563354E0,-9.907746735E0,2.161505127E-1,1.249827875E1
1.154067817E1,6.420298920E0,-8.050109711E0,-3.823049927E-1,1.030391487E1
1.155062817E1,5.708229675E0,-7.050787811E0,-1.721420288E-1,9.073429763E0
1.156057717E1,4.742288361E0,-5.735772400E0,2.909948730E-1,7.448024029E0
1.157052725E1,3.613036652E0,-4.641847229E0,7.060816956E-1,5.924468829E0
1.158047625E1,2.933599548E0,-4.269272003E0,1.174906769E0,5.311600104E0
1.159042625E1,2.609074402E0,-4.252506866E0,1.265618134E0,5.147122802E0
1.160037525E1,2.687511292E0,-4.598587189E0,1.399739227E0,5.507176316E0
1.161032525E1,2.934497681E0,-4.949158173E0,1.619931335E0,5.977425933E0
1.162027425E1,3.329077148E0,-5.359155579E0,1.839824066E0,6.571777216E0
1.163022425E1,3.823498993E0,-6.015241241E0,2.038760376E0,7.413421316E0
1.164017325E1,4.331841888E0,-6.745123444E0,2.144739990E0,8.298280186E0
1.165012325E1,4.963977356E0,-7.601642303E0,2.228116608E0,9.348290781E0
1.166007225E1,5.767057343E0,-8.750652924E0,2.356100464E0,1.074169849E1
1.167002225E1,6.462810516E0,-9.995164948E0,2.291285248E0,1.212110681E1
1.167997125E1,6.846013641E0,-1.098460739E1,1.889820099E0,1.308055512E1
1.168992125E1,6.943011932E0,-1.154474258E1,1.076710968E0,1.351465140E1
1.169987025E1,6.825805664E0,-1.169622757E1,-1.036893768E0,1.358191853E1
1.170982025E1,6.647676086E0,-1.145837219E1,-2.660118256E0,1.351155505E1
1.171976925E1,6.418502655E0,-1.098550552E1,-1.419198761E0,1.280205581E1
1.172971925E1,5.892646179E0,-1.112681168E1,4.917274475E-1,1.260043701E1
1.173966825E1,5.528453522E0,-1.163620239E1,1.546733551E0,1.297526066E1
1.174961825E1,5.690117340E0,-1.201416641E1,2.825973358E0,1.359057598E1
1.175956725E1,5.816304932E0,-1.104822510E1,2.789598999E0,1.279353522E1
1.176951725E1,5.656437378E0,-9.511969757E0,6.053411865E-1,1.108328879E1
1.177946725E1,5.221891022E0,-8.722212067E0,-1.519490204E0,1.027881217E1
1.178941625E1,4.637955322E0,-8.400081940E0,-1.738335114E0,9.751605772E0
1.179936625E1,4.525090027E0,-8.571625214E0,-5.635780334E-1,9.709110091E0
1.180931525E1,4.811594238E0,-9.010662231E0,6.198609924E-1,1.023365529E1
1.181926525E1,5.146896973E0,-9.265731812E0,1.327888641E0,1.068211696E1
1.182921425E1,5.428162079E0,-9.212742004E0,1.752106476E0,1.083556348E1
1.183916425E1,5.530698853E0,-8.842861176E0,1.933379517E0,1.060767552E1
1.184911325E1,5.641019440E0,-8.200995941E0,1.963466949E0,1.014557230E1
1.185906325E1,5.875132599E0,-7.272327118E0,1.969454498E0,9.554196763E0
1.186901225E1,6.355034637E0,-6.426136780E0,2.010020142E0,9.258611134E0
1.187896225E1,6.995253296E0,-6.003415833E0,2.053280182E0,9.444073795E0
1.188891125E1,7.648644562E0,-5.822442169E0,2.216141510E0,9.864779756E0
1.189886125E1,8.321645050E0,-5.773643646E0,2.468965759E0,1.042499541E1
1.190881025E1,8.896449738E0,-5.818699951E0,2.467468872E0,1.091295055E1
1.191876025E1,8.867260437E0,-6.386618958E0,2.010918274E0,1.111130063E1
1.192870925E1,8.623866577E0,-6.619684296E0,1.263821869E0,1.094479514E1
1.193865925E1,8.541238403E0,-6.154002686E0,6.791377258E-1,1.054920521E1
1.194860825E1,8.328530731E0,-5.701793060E0,3.109034729E-1,1.009809533E1
1.195855825E1,8.051756287E0,-5.518424377E0,8.487350464E-2,9.761710425E0
1.196850725E1,7.834557953E0,-5.655090179E0,7.679031372E-2,9.662620763E0
1.197845725E1,7.745193787E0,-5.911806335E0,2.782713318E-1,9.747559483E0
1.198840625E1,7.743247833E0,-6.220464478E0,5.653742981E-1,9.948452815E0
1.199835625E1,7.759414215E0,-6.526877289E0,7.945477295E-1,1.017054287E1
1.200830525E1,7.651638336E0,-6.684200134E0,9.238787842E-1,1.020194357E1
1.201825525E1,7.405400391E0,-6.749015350E0,1.019529877E0,1.007117691E1
1.202820525E1,6.953190765E0,-6.765930176E0,9.794132996E-1,9.751098573E0
1.203815425E1,6.387217712E0,-6.849456482E0,9.276210022E-1,9.411274352E0
1.204810425E1,5.916746063E0,-7.037615204E0,1.019380188E0,9.250678229E0
1.205805325E1,5.644162903E0,-7.162455597E0,1.292861481E0,9.210257101E0
1.206800325E1,5.444178772E0,-7.365583191E0,1.641636200E0,9.305152748E0
1.207795225E1,5.269342346E0,-7.654033356E0,1.955383759E0,9.495984468E0
1.208790225E1,5.163063354E0,-7.909851379E0,2.238744507E0,9.707468723E0
1.209785125E1,5.169799347E0,-8.133636017E0,2.424358521E0,9.937825435E0
1.210780125E1,5.100643158E0,-8.290360107E0,2.359692993E0,1.001572675E1
1.211775025E1,5.117857361E0,-8.355474701E0,2.220781860E0,1.004680514E1
1.212770025E1,5.085823975E0,-8.396938477E0,2.034269714E0,1.002558899E1
1.213764925E1,4.826413422E0,-8.301137695E0,1.590742035E0,9.733119427E0
1.214759925E1,4.666096802E0,-8.297245789E0,1.249302063E0,9.600911555E0
1.215754825E1,4.823868713E0,-8.343349915E0,1.329834595E0,9.728805539E0
1.216749825E1,4.794679413E0,-8.475075989E0,1.430425415E0,9.841848432E0
1.217744725E1,5.002447357E0,-8.566236420E0,1.625918884E0,1.005228821E1
1.218739725E1,5.516478424E0,-8.474626923E0,2.283651123E0,1.036657601E1
1.219734625E1,5.386847992E0,-8.462202759E0,2.174977112E0,1.026438173E1
1.220729625E1,5.285658417E0,-8.415799255E0,1.524878998E0,1.005430843E1
1.221724525E1,5.650150452E0,-8.381670227E0,1.823208618E0,1.027135267E1
1.222719525E1,5.718707886E0,-8.293653259E0,1.805695038E0,1.023468802E1
1.223714425E1,5.679639130E0,-8.103249207E0,1.464255066E0,1.000324903E1
1.224709425E1,5.616320801E0,-7.996820526E0,1.172362061E0,9.842084671E0
1.225704325E1,5.625002747E0,-7.848479004E0,1.272503815E0,9.739535129E0
1.226699325E1,5.602699127E0,-7.764054565E0,1.546733551E0,9.698616679E0
1.227694325E1,5.571863251E0,-7.668403473E0,1.651815033E0,9.621775554E0
1.228689225E1,5.593717804E0,-7.625891876E0,1.675914917E0,9.604821528E0
1.229684225E1,5.616620178E0,-7.680228882E0,1.702409821E0,9.665947295E0
1.230679125E1,5.644761658E0,-7.632927246E0,1.648521881E0,9.635483221E0
1.231674125E1,5.591622162E0,-7.551646271E0,1.528621216E0,9.519993835E0
1.232669025E1,5.442382507E0,-7.510781250E0,1.398990784E0,9.380220549E0
1.233664025E1,5.307063904E0,-7.488178253E0,1.307830353E0,9.270823106E0
1.234658925E1,5.175786896E0,-7.492968292E0,1.354383545E0,9.206937526E0
1.235653925E1,5.024451599E0,-7.547155609E0,1.473086700E0,9.185567815E0
1.236648825E1,4.924609222E0,-7.599097595E0,1.626218262E0,9.200143808E0
1.237643825E1,4.863985291E0,-7.685168610E0,1.757794647E0,9.263369338E0
1.238638725E1,4.836592255E0,-7.855364685E0,1.860181732E0,9.410613957E0
1.239633725E1,4.843028870E0,-8.056396637E0,1.917213135E0,9.593547916E0
1.240628625E1,4.864883423E0,-8.253686371E0,1.882934418E0,9.764008984E0
1.241623625E1,5.009482727E0,-8.440497894E0,1.808239746E0,9.980313265E0
1.242618525E1,5.234913940E0,-8.609496460E0,1.761087799E0,1.022884077E1
1.243613525E1,5.489384766E0,-8.759035492E0,1.723964996E0,1.047979500E1
1.244608425E1,5.695356445E0,-8.848249969E0,1.689985657E0,1.065761062E1
1.245603425E1,5.796845398E0,-8.888815613E0,1.633553009E0,1.073699003E1
1.246598325E1,5.842949524E0,-8.836873627E0,1.533710632E0,1.070432917E1
1.247593325E1,5.807323608E0,-8.654852142E0,1.406325531E0,1.051709202E1
1.248588225E1,5.729784851E0,-8.372539215E0,1.309776306E0,1.022963153E1
1.249583225E1,5.609435120E0,-8.035290527E0,1.255439301E0,9.879665179E0
1.250578125E1,5.429359589E0,-7.680827637E0,1.275647278E0,9.492119611E0
1.251573125E1,5.216502228E0,-7.354356537E0,1.299896851E0,9.109785255E0
1.252568125E1,5.038372650E0,-7.147187347E0,1.396296387E0,8.855344688E0
1.253563025E1,4.922214203E0,-7.099586334E0,1.485211487E0,8.765738528E0
1.254558025E1,4.858596497E0,-7.153623962E0,1.556163940E0,8.786463562E0
1.255552925E1,4.837789764E0,-7.247478790E0,1.557211761E0,8.851839757E0
1.256547937E1,4.947661285E0,-7.439529419E0,1.499282227E0,9.059459000E0
1.257542837E1,5.192851410E0,-7.694000244E0,1.322499847E0,9.376158668E0
1.258537838E1,5.509592743E0,-7.950267334E0,9.867480469E-1,9.722964290E0
1.259532738E1,5.848637695E0,-8.127798157E0,5.352868652E-1,1.002767160E1
1.260527737E1,6.126909027E0,-8.226592712E0,2.875520325E-1,1.026150710E1
1.261522637E1,6.312822418E0,-8.277786255E0,4.598437500E-1,1.042040923E1
1.262517638E1,6.444847870E0,-8.341403961E0,9.476792908E-1,1.058362793E1
1.263512538E1,6.513854370E0,-8.378077698E0,1.433868256E0,1.070880305E1
1.264507537E1,6.464906158E0,-8.388555908E0,1.607806549E0,1.071204573E1
1.265502437E1,6.297404480E0,-8.356971588E0,1.424138489E0,1.056051361E1
1.266497438E1,6.031108246E0,-8.255931702E0,8.655001831E-1,1.026078776E1
1.267492338E1,5.883814545E0,-8.236472168E0,2.644999695E-1,1.012564603E1
1.268487338E1,6.018684082E0,-8.432863770E0,-6.481521606E-2,1.036059605E1
1.269482238E1,6.378386078E0,-8.827592926E0,-2.269281006E-1,1.089319522E1
1.270477238E1,6.841223602E0,-9.336235199E0,-3.872447205E-1,1.158091475E1
1.271472137E1,7.289092255E0,-9.757010193E0,-5.632786560E-1,1.219210386E1
1.272467138E1,7.662415924E0,-9.929451599E0,-7.399113464E-1,1.256399999E1
1.273462038E1,7.860753479E0,-9.787247314E0,-9.148974609E-1,1.258644877E1
1.274457037E1,7.801925812E0,-9.372908936E0,-9.666897583E-1,1.223339517E1
1.275451937E1,7.524702301E0,-8.833730164E0,-8.062234497E-1,1.163210770E1
1.276446938E1,7.223079529E0,-8.059989166E0,-4.176315308E-1,1.083100731E1
1.277441838E1,7.012317810E0,-7.385791168E0,-2.243833923E-1,1.018689649E1
1.278436837E1,6.662794647E0,-7.409891052E0,3.134481812E-1,9.969832881E0
1.279431737E1,6.433321838E0,-7.497159576E0,1.190474396E0,9.950490484E0
1.280426738E1,6.359974365E0,-7.548053741E0,1.633403320E0,1.000451876E1
1.281421737E1,6.260730743E0,-7.660170593E0,1.875749359E0,1.006942891E1
1.282416638E1,6.179150391E0,-8.017627258E0,2.026635590E0,1.032334724E1
1.283411638E1,6.154302063E0,-8.616831207E0,2.205214233E0,1.081610761E1
1.284406538E1,6.057902527E0,-9.123228149E0,2.376757507E0,1.120626839E1
1.285401538E1,5.942043457E0,-9.517508240E0,2.299218750E0,1.145326374E1
1.286396438E1,5.872288513E0,-9.872120819E0,2.140848083E0,1.168442435E1
1.287391437E1,5.650300140E0,-9.772128754E0,1.829944611E0,1.143543131E1
1.288386337E1,5.368735657E0,-9.446855164E0,1.308578796E0,1.094434893E1
1.289381338E1,5.085374908E0,-9.496851196E0,1.009051666E0,1.081986164E1
1.290376238E1,4.533472595E0,-8.792715454E0,8.857081604E-1,9.932205081E0
1.291371237E1,4.047882385E0,-8.181985474E0,9.159452820E-1,9.174377028E0
1.292366137E1,3.724554749E0,-7.854616241E0,9.421408081E-1,8.743851193E0
1.293361138E1,3.657045135E0,-7.572153625E0,7.506889343E-1,8.442453644E0
1.294356038E1,3.807482300E0,-7.393425293E0,3.332070923E-1,8.322901297E0
1.295351037E1,4.123624878E0,-7.489974518E0,-5.927673340E-2,8.550293220E0
1.296345938E1,4.596940613E0,-7.784561920E0,-1.881587219E-1,9.042492521E0
1.297340938E1,5.185965729E0,-8.171507263E0,1.517843628E-1,9.679401324E0
1.298335838E1,5.779780884E0,-8.488997040E0,1.017583923E0,1.032009762E1
1.299330838E1,6.298003235E0,-8.458310852E0,1.259929962E0,1.062051273E1
1.300325738E1,6.742429047E0,-8.370144196E0,6.903643799E-1,1.077015628E1
1.301320737E1,6.944508820E0,-8.448730774E0,-3.367996216E-2,1.093656202E1
1.302315637E1,6.759343872E0,-8.647367706E0,-4.682263184E-1,1.098566947E1
1.303310638E1,6.291716309E0,-8.799301758E0,-3.646417236E-1,1.082341763E1
1.304305538E1,5.776038666E0,-8.871601410E0,7.110214233E-2,1.058645312E1
1.305300537E1,5.334307251E0,-8.816965027E0,4.718188477E-1,1.031582857E1
1.306295437E1,5.087320862E0,-8.535999298E0,5.369334412E-1,9.951503157E0
1.307290438E1,5.090763702E0,-8.095764771E0,2.899470520E-1,9.567724473E0
1.308285437E1,5.172942810E0,-7.632029114E0,-1.224453735E-1,9.220748266E0
1.309280337E1,5.282964020E0,-7.208260345E0,-6.122268677E-1,8.957876299E0
1.310275338E1,5.327122192E0,-6.865323486E0,-9.198371887E-1,8.738249131E0
1.311270238E1,5.281616821E0,-6.596931610E0,-9.386979675E-1,8.502713496E0
1.312265238E1,5.135221252E0,-6.360872498E0,-8.333171082E-1,8.217397011E0
1.313260138E1,4.957989807E0,-6.133645020E0,-7.244934082E-1,7.920110785E0
1.314255138E1,4.767735443E0,-5.957611084E0,-6.122268677E-1,7.655014881E0
1.315250037E1,4.554429016E0,-5.836213531E0,-4.995112610E-1,7.419819644E0
1.316245038E1,4.375401306E0,-5.776038666E0,-4.343966675E-1,7.259163845E0
1.317239938E1,4.214186554E0,-5.795947266E0,-4.676275635E-1,7.181298529E0
1.318234937E1,4.133803711E0,-5.876030731E0,-5.843847656E-1,7.208160364E0
1.319229837E1,4.167483673E0,-6.019432526E0,-6.701564026E-1,7.351911160E0
1.320224838E1,4.293820953E0,-6.115233307E0,-7.164102173E-1,7.506411951E0
1.321219738E1,4.518803101E0,-6.171216888E0,-6.611750793E-1,7.677281539E0
1.322214737E1,4.851860504E0,-6.251599731E0,-4.179309082E-1,7.924500981E0
1.323209637E1,5.171146545E0,-6.362369385E0,-6.691085815E-2,8.199083964E0
1.324204638E1,5.465434570E0,-6.464157715E0,2.556683350E-1,8.468865113E0
1.325199538E1,5.668861542E0,-6.490353241E0,5.128335571E-1,8.632709576E0
1.326194538E1,5.798042908E0,-6.414461060E0,6.908134460E-1,8.674089892E0
1.327189438E1,5.917793884E0,-6.316115570E0,7.372169495E-1,8.686604007E0
1.328184438E1,6.028713226E0,-6.273454285E0,6.611750793E-1,8.725752937E0
1.329179337E1,6.208639069E0,-6.283633118E0,3.781137085E-1,8.841618303E0
1.330174338E1,6.594237213E0,-6.344855804E0,-2.165995789E-1,9.153582631E0
1.331169238E1,7.051835632E0,-6.445147247E0,-9.057664490E-1,9.596286870E0
1.332164237E1,7.578590240E0,-6.509363708E0,-1.447789307E0,1.009469860E1
1.333159137E1,8.107141113E0,-6.566095734E0,-1.583856354E0,1.055215386E1
1.334154138E1,8.584498444E0,-6.580016785E0,-1.188079376E0,1.088125760E1
1.335149137E1,8.908724213E0,-6.562802582E0,-5.713618469E-1,1.107981043E1
1.336144037E1,9.301357727E0,-6.419999542E0,-2.095642090E-3,1.130184295E1
1.337139038E1,9.679920502E0,-6.208339691E0,4.867877197E-1,1.151005234E1
1.338133938E1,1.018227585E1,-6.047574005E0,7.250921631E-1,1.186497583E1
1.339128937E1,1.080228653E1,-5.843398590E0,5.971083069E-1,1.229598470E1
1.340123838E1,1.136137390E1,-5.672603760E0,4.198768616E-1,1.270572890E1
1.341118838E1,1.169637726E1,-5.586981812E0,5.508544922E-1,1.297393724E1
1.342113738E1,1.162123352E1,-5.470823364E0,6.830296326E-1,1.286271769E1
1.343108738E1,1.108190506E1,-5.332660675E0,6.262976074E-1,1.231414383E1
1.344103638E1,1.011222153E1,-5.298531647E0,3.863465881E-1,1.142281601E1
1.345098637E1,8.949738922E0,-5.435646515E0,3.492237854E-1,1.047692880E1
1.346093537E1,7.785460052E0,-5.749244385E0,6.441105652E-1,9.699591623E0
1.347088538E1,7.026238861E0,-6.661597137E0,1.081051941E0,9.742360199E0
1.348083438E1,6.786287842E0,-8.343050537E0,1.832339630E0,1.090952169E1
1.349078437E1,6.844217377E0,-1.041683807E1,2.353256378E0,1.268430694E1
1.350073337E1,7.057224426E0,-1.264270935E1,2.134261780E0,1.463549076E1
1.351068338E1,7.300618286E0,-1.532827469E1,1.049168243E0,1.701046108E1
1.352063238E1,7.618856506E0,-1.926134583E1,-1.780996399E0,2.078986209E1
1.353058237E1,7.728129272E0,-2.430974762E1,-8.421637115E0,2.686283275E1
1.354053138E1,6.641538849E0,-2.240989838E1,-9.760602722E0,2.532948774E1
1.355048138E1,5.027894440E0,-1.439227112E1,-2.953508148E0,1.552869604E1
1.356043038E1,3.826043701E0,-8.691376190E0,1.592837677E0,9.628902448E0
1.357038013E1,2.816992035E0,-5.582790527E0,2.905009003E0,6.895075888E0
1.358032913E1,2.009870453E0,-3.303779755E0,3.007096710E0,4.898690695E0
1.359027912E1,1.284329224E0,-1.932331696E0,2.945874023E0,3.749877478E0
1.360022812E1,7.060816956E-1,-1.329984283E0,2.738555145E0,3.125235005E0
1.361017813E1,2.787203979E-1,-1.369202728E0,2.548151093E0,2.906109971E0
1.362012713E1,-1.417552185E-1,-1.985920258E0,2.372117157E0,3.096920021E0
1.363007712E1,-1.074765015E-1,-3.232827301E0,2.637066193E0,4.173348974E0
1.364002613E1,5.767506409E-1,-5.366789703E0,3.363954620E0,6.360130793E0
1.364997613E1,1.632205811E0,-8.138575745E0,4.099524994E0,9.257786784E0
1.365992613E1,2.916235657E0,-1.097622482E1,4.655917969E0,1.227434373E1
1.366987513E1,4.119283905E0,-1.349638412E1,4.709057465E0,1.487602455E1
1.367982513E1,4.951852570E0,-1.480152008E1,3.988156586E0,1.610935236E1
1.368977412E1,5.093308411E0,-1.447624649E1,2.788401489E0,1.559739356E1
1.369972413E1,5.052443390E0,-1.324415863E1,1.366358643E0,1.424085173E1
1.370967313E1,4.995711365E0,-1.158575729E1,3.682342529E-1,1.262230171E1
1.371962312E1,4.619992676E0,-9.455088043E0,-2.668949890E-1,1.052683500E1
1.372957212E1,3.977678375E0,-7.581284637E0,-4.492158508E-1,8.573190590E0
1.373952213E1,3.399730225E0,-6.234684906E0,-4.592449951E-1,7.116204567E0
1.374947113E1,3.050656128E0,-5.538931732E0,-6.108796692E-1,6.352908115E0
1.375942112E1,3.084635468E0,-5.602100372E0,-5.004093933E-1,6.414741936E0
1.376937012E1,3.424129486E0,-6.772815857E0,-5.134323120E-2,7.589356593E0
1.377932013E1,3.685186615E0,-8.171507263E0,4.453239441E-1,8.975101379E0
1.378926913E1,3.968247986E0,-9.207652588E0,8.946894836E-1,1.006619727E1
1.379921913E1,4.384232941E0,-9.790690155E0,1.295855255E0,1.080547792E1
1.380916813E1,4.954696655E0,-1.001701950E1,1.589544525E0,1.128788512E1
1.381911813E1,5.518574066E0,-1.000324814E1,1.855391693E0,1.157420025E1
1.382906712E1,5.879473572E0,-9.671238556E0,2.012864227E0,1.149576823E1
1.383901713E1,5.972430267E0,-8.982520752E0,2.011067963E0,1.097269323E1
1.384896613E1,5.916147308E0,-8.206833801E0,1.827100525E0,1.028062334E1
1.385891612E1,5.886958008E0,-7.576195221E0,1.552122345E0,9.719263984E0
1.386886512E1,5.865851898E0,-7.168892212E0,1.272354126E0,9.349872676E0
1.387881513E1,5.859415283E0,-6.983876953E0,1.065184937E0,9.178338832E0
1.388876413E1,5.938450928E0,-7.022047577E0,9.548643494E-1,9.245870295E0
1.389871412E1,5.998775482E0,-7.281607819E0,8.845106506E-1,9.475731043E0
1.390866312E1,6.001170502E0,-7.619155884E0,8.852590942E-1,9.739058858E0
1.391861313E1,5.900130615E0,-7.961643677E0,9.627978516E-1,9.956218711E0
1.392856213E1,5.741161194E0,-8.198750610E0,1.031804352E0,1.006206061E1
1.393851213E1,5.564977570E0,-8.263416138E0,1.059945831E0,1.001880765E1
1.394846113E1,5.395080872E0,-8.166268158E0,1.062191162E0,9.844952174E0
1.395841113E1,5.280868378E0,-8.058342590E0,1.050515442E0,9.691647890E0
1.396836113E1,5.199886780E0,-7.979007568E0,9.909393311E-1,9.575246475E0
1.397831013E1,5.088218994E0,-7.938741302E0,9.466314697E-1,9.476797832E0
1.398826012E1,4.961282959E0,-7.920778656E0,9.674382019E-1,9.396222634E0
1.399820912E1,4.846471710E0,-7.913443909E0,1.012494507E0,9.334668053E0
1.400815913E1,4.734205170E0,-7.969876556E0,1.103355560E0,9.335364182E0
1.401810813E1,4.642895050E0,-8.040978699E0,1.169817352E0,9.358540779E0
1.402805812E1,4.539609833E0,-8.150999908E0,1.179846497E0,9.404195590E0
1.403800712E1,4.449347534E0,-8.272696838E0,1.132993927E0,9.461388994E0
1.404795713E1,4.349205780E0,-8.406967621E0,1.030157776E0,9.521235242E0
1.405790613E1,4.290078735E0,-8.517886963E0,9.291178894E-1,9.582402304E0
1.406785612E1,4.237238617E0,-8.572373657E0,8.641529846E-1,9.601382275E0
1.407780513E1,4.221820679E0,-8.508456573E0,8.732839966E-1,9.538355626E0
1.408775513E1,4.270469513E0,-8.402476959E0,9.645941162E-1,9.474648844E0
1.409770413E1,4.339326324E0,-8.248746643E0,1.121318207E0,9.387700925E0
1.410765413E1,4.407434692E0,-8.083490295E0,1.286574554E0,9.296427809E0
1.411760313E1,4.468657379E0,-7.974965973E0,1.436412964E0,9.253770218E0
1.412755312E1,4.478237457E0,-7.906258850E0,1.546134796E0,9.217053354E0
1.413750212E1,4.508175201E0,-7.883655853E0,1.583856354E0,9.218691567E0
1.414745213E1,4.597539368E0,-7.979157257E0,1.612446899E0,9.349026889E0
1.415740113E1,4.728367310E0,-8.248746643E0,1.569785614E0,9.636571251E0
1.416735112E1,4.874912567E0,-8.562494202E0,1.473236389E0,9.962504954E0
1.417730012E1,5.009931793E0,-8.879085846E0,1.360071716E0,1.028529908E1
1.418725013E1,5.159470825E0,-9.200018463E0,1.292711792E0,1.062692725E1
1.419719913E1,5.260211334E0,-9.465416565E0,1.279838562E0,1.090421573E1
1.420714912E1,5.337151337E0,-9.597292328E0,1.337319031E0,1.106262295E1
1.421709813E1,5.347629547E0,-9.544601898E0,1.455872498E0,1.103703456E1
1.422704813E1,5.288352814E0,-9.338330841E0,1.603914642E0,1.085097418E1
1.423699713E1,5.140310669E0,-9.084907837E0,1.697769470E0,1.057547944E1
1.424694713E1,4.912334747E0,-8.847651215E0,1.684896240E0,1.025918320E1
1.425689713E1,4.678670654E0,-8.622818756E0,1.566642151E0,9.934652989E0
1.426684612E1,4.471351776E0,-8.429271240E0,1.445543976E0,9.650657891E0
1.427679613E1,4.345762939E0,-8.266858978E0,1.345851288E0,9.435991129E0
1.428674513E1,4.311783600E0,-8.155041504E0,1.309177551E0,9.317195158E0
1.429669512E1,4.414170685E0,-8.178392944E0,1.360221405E0,9.392614985E0
1.430664412E1,4.710404663E0,-8.466693420E0,1.550026703E0,9.812002464E0
1.431659413E1,5.156027985E0,-8.984915771E0,1.742077332E0,1.050467369E1
1.432654313E1,5.619015198E0,-9.592053223E0,1.764530640E0,1.125586004E1
1.433649312E1,6.055507507E0,-1.013572266E1,1.729054413E0,1.193279825E1
1.434644212E1,6.428980865E0,-1.054167847E1,1.691482544E0,1.246274019E1
1.435639213E1,6.772067413E0,-1.081875229E1,1.666334839E0,1.287178969E1
1.436634113E1,7.075785828E0,-1.098340988E1,1.635798340E0,1.316730321E1
1.437629113E1,7.424410858E0,-1.119013000E1,1.641785889E0,1.352909262E1
1.438624013E1,7.770191803E0,-1.140343643E1,1.634301453E0,1.389550950E1
1.439619013E1,8.037236481E0,-1.132634674E1,1.700314178E0,1.399193943E1
1.440613912E1,7.920628967E0,-1.057236465E1,1.689835968E0,1.331791287E1
1.441608913E1,7.349716187E0,-9.200916595E0,1.530866547E0,1.187513144E1
1.442603813E1,6.499633942E0,-7.726931763E0,1.238225098E0,1.017270452E1
1.443598812E1,5.521567841E0,-6.318809967E0,2.975811768E-1,8.396643697E0
1.444593712E1,4.758305054E0,-4.988975372E0,-1.894460449E0,7.149847736E0
1.445588713E1,4.238436127E0,-4.037404175E0,-6.608757019E0,8.828399776E0
1.446583613E1,3.385060730E0,-5.148842926E0,-4.176764374E0,7.444097007E0
1.447578612E1,2.306254120E0,-7.493117981E0,1.911674652E0,8.069704153E0
1.448573512E1,2.398612061E0,-8.675209808E0,4.436324615E0,1.003461913E1
1.449568513E1,2.633773041E0,-9.877808990E0,4.781806183E0,1.128598871E1
1.450563413E1,2.676883392E0,-1.110854965E1,4.002676392E0,1.210731177E1
1.451558413E1,3.005450134E0,-1.202554276E1,2.518363037E0,1.264865848E1
1.452553313E1,3.792663116E0,-1.268581970E1,8.309220886E-1,1.326667805E1
1.453548313E1,5.049000549E0,-1.308099792E1,-6.179150391E-1,1.403519620E1
1.454543313E1,6.680757294E0,-1.314970505E1,-2.408341827E0,1.494481085E1
1.455538213E1,7.800428925E0,-1.289912613E1,-2.336042175E0,1.525422038E1
1.456533192E1,8.031548309E0,-1.212478638E1,-3.004252625E-1,1.454669957E1
1.457528092E1,7.754474487E0,-1.100002533E1,1.202000427E0,1.351211445E1
1.458523092E1,7.003037109E0,-9.893077240E0,2.090103607E0,1.229975769E1
1.459517992E1,5.884263611E0,-9.126970367E0,2.376458130E0,1.111637079E1
1.460512992E1,4.521048431E0,-8.736282806E0,2.249222717E0,1.009066494E1
1.461507892E1,3.327131195E0,-8.347391510E0,1.992506561E0,9.204283210E0
1.462502892E1,2.503693542E0,-7.938591614E0,1.775158539E0,8.511222357E0
1.463497792E1,1.920206909E0,-7.742948456E0,1.416055298E0,8.102200810E0
1.464492792E1,1.569785614E0,-7.643405457E0,8.803193665E-1,7.852441406E0
1.465487692E1,1.483564911E0,-7.644153900E0,2.383044434E-1,7.790432767E0
1.466482692E1,1.611249390E0,-7.800279236E0,-3.121009827E-1,7.971065661E0
1.467477592E1,2.008074188E0,-8.028853912E0,-5.385800171E-1,8.293667797E0
1.468472592E1,2.493065643E0,-8.270152130E0,-3.490740967E-1,8.644804525E0
1.469467492E1,2.892435150E0,-8.462502136E0,1.257385254E-2,8.943169550E0
1.470462492E1,3.091072083E0,-8.598868561E0,4.478686523E-1,9.148543790E0
1.471457392E1,3.150947571E0,-8.607999573E0,9.283694458E-1,9.213468243E0
1.472452392E1,3.180735626E0,-8.413104858E0,1.266516266E0,9.083032309E0
1.473447292E1,3.264860687E0,-8.057743835E0,1.338666229E0,8.796509438E0
1.474442292E1,3.412603455E0,-7.726183319E0,1.123114471E0,8.520631264E0
1.475437192E1,3.684887238E0,-7.502698059E0,6.962022400E-1,8.387703481E0
1.476432192E1,4.101920013E0,-7.338938599E0,1.706451416E-1,8.409214429E0
1.477427092E1,4.690346375E0,-7.222331085E0,-6.819818115E-1,8.638663937E0
1.478422092E1,5.370382233E0,-7.273824005E0,-1.811233521E0,9.221176056E0
1.479416992E1,5.769751740E0,-7.399562531E0,-1.696122894E0,9.535218595E0
1.480411992E1,5.780978394E0,-7.414830780E0,-1.492546234E0,9.519827779E0
1.481406892E1,5.848338318E0,-7.496411133E0,-1.969304810E0,9.709655112E0
1.482401892E1,6.057303772E0,-7.578440552E0,-2.478096771E0,1.001322395E1
1.483396792E1,6.322252808E0,-7.441175995E0,-2.097588043E0,9.987084477E0
1.484391792E1,6.461463318E0,-7.147786102E0,-8.794212341E-1,9.675470845E0
1.485386692E1,6.486611023E0,-6.737489319E0,2.863545227E-1,9.356916362E0
1.486381692E1,6.547085266E0,-6.270460510E0,8.418493652E-1,9.104488500E0
1.487376692E1,6.627168732E0,-5.827381897E0,6.734495544E-1,8.850496002E0
1.488371592E1,6.665189667E0,-5.488636322E0,2.580633545E-1,8.638083043E0
1.489366592E1,6.630761261E0,-5.345533905E0,-1.152603149E-1,8.517923020E0
1.490361492E1,6.453829193E0,-5.381459198E0,-2.900967407E-1,8.408101478E0
1.491356492E1,5.889353027E0,-5.709277496E0,-2.454895020E-1,8.206131470E0
1.492351392E1,4.961881714E0,-6.223458252E0,-1.104702759E-1,7.960144875E0
1.493346392E1,4.387526093E0,-6.418352966E0,6.197113037E-2,7.774926394E0
1.494341292E1,4.040847015E0,-6.458768921E0,3.309617615E-1,7.625855772E0
1.495336292E1,3.804488525E0,-6.545139313E0,6.156697083E-1,7.595527023E0
1.496331192E1,3.665128326E0,-6.574328613E0,8.015830994E-1,7.569511069E0
1.497326192E1,3.578608246E0,-6.525679779E0,9.051676941E-1,7.497350339E0
1.498321092E1,3.563639374E0,-6.499035187E0,9.729766846E-1,7.475537945E0
1.499316092E1,3.720064087E0,-6.477480011E0,1.052760773E0,7.543535600E0
1.500310992E1,4.059558105E0,-6.462810516E0,1.019230499E0,7.699789776E0
1.501305992E1,4.503834229E0,-6.660998383E0,6.957531738E-1,8.070780302E0
1.502300892E1,5.161566467E0,-7.091054077E0,1.898052979E-1,8.772732891E0
1.503295892E1,6.026467896E0,-7.639812927E0,-2.444416809E-1,9.733694499E0
1.504290792E1,6.838978271E0,-8.320746918E0,-3.923341370E-1,1.077777246E1
1.505285792E1,7.544610901E0,-9.031319275E0,-2.525248718E-1,1.177071155E1
1.506280692E1,8.186625824E0,-9.525142365E0,1.219963074E-1,1.256041650E1
1.507275692E1,8.685688019E0,-9.724827118E0,6.623725891E-1,1.305573346E1
1.508270592E1,9.251960449E0,-9.576934662E0,1.098415833E0,1.336124871E1
1.509265592E1,9.932744751E0,-8.871302032E0,9.690847778E-1,1.335284776E1
1.510260492E1,1.073821976E1,-7.797584839E0,2.634521484E-1,1.327332287E1
1.511255492E1,1.157677597E1,-6.505471802E0,-8.243357849E-1,1.330497782E1
1.512250392E1,1.227282852E1,-5.250481567E0,-1.725461884E0,1.345983266E1
1.513245392E1,1.258268417E1,-4.572391663E0,-5.920188904E-1,1.340079076E1
1.514240292E1,1.267010239E1,-4.982239380E0,2.976260834E0,1.393600848E1
1.515235292E1,1.261441818E1,-6.449338531E0,5.707630920E0,1.527398325E1
1.516230192E1,1.160237274E1,-8.300688629E0,4.901706848E0,1.508453562E1
1.517225192E1,9.676028595E0,-9.731413422E0,1.751507721E0,1.383451177E1
1.518220092E1,8.436755676E0,-1.115420471E1,-1.347198486E-1,1.398618170E1
1.519215092E1,8.104895782E0,-1.337528595E1,-1.425934753E0,1.570416823E1
1.520210092E1,7.934100952E0,-1.609228592E1,-4.844974823E0,1.858454748E1
1.521204992E1,8.689879303E0,-1.620889343E1,-3.072061615E0,1.864617363E1
1.522199992E1,9.147328033E0,-1.223974731E1,2.431842957E0,1.547252031E1
1.523194892E1,7.726482697E0,-7.879913635E0,3.657643890E0,1.162626047E1
1.524189892E1,5.334007874E0,-5.729186096E0,1.142873383E0,7.910838950E0
1.525184792E1,3.310216370E0,-4.460723877E0,-7.469467163E-1,5.604776473E0
1.526179792E1,2.575244751E0,-3.659140778E0,-2.649490356E-1,4.482342552E0
1.527174692E1,2.572550354E0,-3.140469360E0,1.224603424E0,4.240308559E0
1.528169692E1,2.473007355E0,-2.862048340E0,2.098186798E0,4.325444938E0
1.529164592E1,2.257904663E0,-3.468736725E0,2.337089996E0,4.753131345E0
1.530159592E1,2.338586884E0,-4.877906342E0,2.708168335E0,6.049556564E0
1.531154492E1,2.807561646E0,-6.936425629E0,3.240461426E0,8.154568851E0
1.532149492E1,3.321592712E0,-9.426347809E0,3.567231903E0,1.061198165E1
1.533144392E1,3.784280548E0,-1.174846893E1,3.614234161E0,1.286118152E1
1.534139392E1,4.196373596E0,-1.330553101E1,3.264261932E0,1.432836741E1
1.535134292E1,4.424349518E0,-1.382599869E1,2.586920471E0,1.474534726E1
1.536129292E1,4.327949982E0,-1.346435074E1,1.821112976E0,1.425960534E1
1.537124192E1,3.865711212E0,-1.228016327E1,1.239123230E0,1.293373726E1
1.538119192E1,3.264710999E0,-1.065424438E1,9.503736877E-1,1.118366986E1
1.539114092E1,2.846929779E0,-9.205856323E0,8.542735291E-1,9.673809129E0
1.540109092E1,2.578388214E0,-8.115074615E0,8.896000671E-1,8.561186254E0
1.541103992E1,2.417472839E0,-7.372019806E0,1.051263885E0,7.829176630E0
1.542098992E1,2.328108673E0,-6.954388275E0,1.217118988E0,7.434042299E0
1.543093892E1,2.300416260E0,-6.869963837E0,1.382974091E0,7.375698978E0
1.544088892E1,2.317181396E0,-7.132068787E0,1.640139313E0,7.676313683E0
1.545083792E1,2.301464081E0,-7.671097870E0,1.921105042E0,8.236086694E0
1.546078792E1,2.288590851E0,-8.262817383E0,2.189646606E0,8.849087605E0
1.547073692E1,2.276765442E0,-8.749156036E0,2.302511902E0,9.329145367E0
1.548068692E1,2.316133575E0,-9.032067719E0,2.217488708E0,9.584361125E0
1.549063592E1,2.548450470E0,-9.124275970E0,1.962419128E0,9.674611135E0
1.550058592E1,2.939736786E0,-9.035360870E0,1.627864838E0,9.640007384E0
1.551053492E1,3.373385010E0,-9.003626862E0,1.307830353E0,9.703372781E0
1.552048492E1,3.770060120E0,-9.087602234E0,1.115330658E0,9.901607453E0
1.553043392E1,4.119433594E0,-9.197174377E0,9.801617432E-1,1.012514033E1
1.554038392E1,4.452341309E0,-9.314081268E0,9.473799133E-1,1.036691766E1
1.555033392E1,4.734504547E0,-9.402397614E0,9.686357117E-1,1.057160675E1
1.556028292E1,4.958738251E0,-9.426946564E0,1.042731628E0,1.070250886E1
1.557023362E1,5.168452148E0,-9.346264343E0,1.149459686E0,1.074182537E1
1.558018262E1,5.357509003E0,-9.146579590E0,1.231489105E0,1.067142850E1
1.559013263E1,5.533992004E0,-8.868158569E0,1.358874207E0,1.054114999E1
1.560008163E1,5.733976135E0,-8.573271790E0,1.449585571E0,1.041541021E1
1.561003163E1,6.007307739E0,-8.269703064E0,1.490001526E0,1.032936782E1
1.561998063E1,6.301595764E0,-7.992180176E0,1.395248566E0,1.027286580E1
1.562993063E1,6.578519897E0,-7.684420166E0,1.227896576E0,1.018994442E1
1.563987962E1,6.833888855E0,-7.387138367E0,1.009051666E0,1.011385364E1
1.564982963E1,6.960974579E0,-7.120542755E0,7.785310364E-1,9.988163334E0
1.565977863E1,6.847061462E0,-6.984924774E0,5.493576050E-1,9.796592191E0
1.566972862E1,6.484964447E0,-7.009324036E0,3.948788452E-1,9.557265122E0
1.567967762E1,5.883515167E0,-7.144343262E0,5.697152710E-1,9.272646162E0
1.568962763E1,5.301375732E0,-7.302414551E0,1.036893768E0,9.083225837E0
1.569957663E1,4.978048096E0,-7.391030273E0,1.580263824E0,9.050167131E0
1.570952662E1,4.935835876E0,-7.407496033E0,1.994302826E0,9.121990848E0
1.571947562E1,5.057383118E0,-7.468269653E0,2.102228394E0,9.261292557E0
1.572942563E1,5.236560516E0,-7.642956390E0,1.879491577E0,9.453509243E0
1.573937463E1,5.398823090E0,-7.889793091E0,1.489552460E0,9.675478918E0
1.574932463E1,5.542075195E0,-8.134683838E0,1.131047974E0,9.907923503E0
1.575927363E1,5.697751465E0,-8.315358124E0,8.590635681E-1,1.011669623E1
1.576922363E1,5.883964233E0,-8.417595520E0,7.068301392E-1,1.029449165E1
1.577917262E1,6.053711243E0,-8.446335754E0,6.331832886E-1,1.041100036E1
1.578912263E1,6.130202179E0,-8.355624390E0,6.450086975E-1,1.038324968E1
1.579907163E1,6.106251984E0,-8.194110260E0,7.384144592E-1,1.024573141E1
1.580902162E1,6.008056183E0,-8.107590179E0,9.264234924E-1,1.013350966E1
1.581897062E1,5.833070068E0,-8.123008118E0,1.130748596E0,1.006412240E1
1.582892063E1,5.575306091E0,-8.160280609E0,1.306932220E0,9.969066629E0
1.583886963E1,5.300627289E0,-8.144114227E0,1.410666504E0,9.819023688E0
1.584881962E1,5.098248138E0,-8.041427765E0,1.479074249E0,9.635577576E0
1.585876862E1,5.001549225E0,-7.900271301E0,1.554217987E0,9.478680015E0
1.586871863E1,4.993765411E0,-7.799381104E0,1.613943787E0,9.400683652E0
1.587866862E1,5.005590820E0,-7.738906860E0,1.672322388E0,9.367138358E0
1.588861763E1,5.018014984E0,-7.753426666E0,1.668729858E0,9.385134991E0
1.589856763E1,5.012027435E0,-7.854466553E0,1.556313629E0,9.446437209E0
1.590851663E1,4.969216461E0,-7.993976440E0,1.365610199E0,9.511133622E0
1.591846663E1,4.919220428E0,-8.123756561E0,1.199904785E0,9.572560879E0
1.592841563E1,4.842729492E0,-8.193661194E0,1.092278595E0,9.580249747E0
1.593836562E1,4.774621124E0,-8.223898315E0,1.105301514E0,9.573463418E0
1.594831462E1,4.748874664E0,-8.288863220E0,1.256636810E0,9.635154391E0
1.595826463E1,4.882546692E0,-8.582702179E0,1.549128571E0,9.995090706E0
1.596821363E1,5.182223511E0,-9.130862274E0,1.857936401E0,1.066208301E1
1.597816362E1,5.573210449E0,-9.795180817E0,2.070045319E0,1.145824287E1
1.598811262E1,5.993686066E0,-1.033720367E1,2.194736023E0,1.214902954E1
1.599806263E1,6.379882965E0,-1.070962921E1,2.205513611E0,1.265951637E1
1.600801163E1,6.720275116E0,-1.099388809E1,2.140997772E0,1.306183542E1
1.601796162E1,7.008126526E0,-1.119731506E1,2.043101349E0,1.336667368E1
1.602791063E1,7.238946533E0,-1.132949020E1,1.938019867E0,1.358365254E1
1.603786063E1,7.471263428E0,-1.148980682E1,1.846560059E0,1.382914394E1
1.604780963E1,7.629334717E0,-1.158875107E1,1.765877838E0,1.398657299E1
1.605775963E1,7.531438293E0,-1.131212631E1,1.673070831E0,1.369255018E1
1.606770863E1,7.031328278E0,-1.051263885E1,1.535656586E0,1.274022740E1
1.607765862E1,6.149512024E0,-9.423653412E0,1.317859497E0,1.132954083E1
1.608760762E1,5.100792847E0,-8.266709290E0,9.861492920E-1,9.763660203E0
1.609755763E1,4.111051025E0,-7.146588593E0,6.186634827E-1,8.267842134E0
1.610750663E1,3.283871155E0,-6.246809692E0,3.487747192E-1,7.065980816E0
1.611745662E1,2.644400940E0,-5.669160919E0,1.646575928E-1,6.257743522E0
1.612740562E1,2.200424194E0,-5.490731964E0,8.876541138E-2,5.915900898E0
1.613735563E1,1.993853760E0,-5.990841980E0,-6.137237549E-3,6.313927313E0
1.614730463E1,1.980830841E0,-7.371421051E0,-3.511697388E-1,7.640998581E0
1.615725462E1,2.052681427E0,-9.234297180E0,-6.560856628E-1,9.482414980E0
1.616720362E1,2.255509644E0,-1.089928482E1,-5.701643372E-1,1.114481138E1
1.617715363E1,2.663710785E0,-1.206595871E1,5.224136353E-2,1.235659516E1
1.618710263E1,3.492986298E0,-1.253493347E1,1.067579956E0,1.305623366E1
1.619705263E1,4.558320923E0,-1.262295044E1,2.086810455E0,1.358204496E1
1.620700163E1,5.632636871E0,-1.279554153E1,2.654879150E0,1.423027985E1
1.621695162E1,6.543792114E0,-1.282517990E1,2.635269928E0,1.463731882E1
1.622690163E1,6.951544189E0,-1.253313721E1,2.017354889E0,1.447318955E1
1.623685063E1,6.633006592E0,-1.189830734E1,5.807922363E-1,1.363465488E1
1.624680062E1,5.496420135E0,-1.094434113E1,-1.566193085E0,1.234674847E1
1.625674962E1,4.152514801E0,-9.919871521E0,-3.019071808E0,1.116969224E1
1.626669963E1,3.427272949E0,-8.932674408E0,-2.531835022E0,9.896921770E0
1.627664863E1,3.383863220E0,-8.077502747E0,-1.185384979E0,8.837517664E0
1.628659862E1,3.598666534E0,-7.534432068E0,-1.676513672E-2,8.349751402E0
1.629654762E1,3.746259613E0,-7.384593658E0,1.057999878E0,8.347816980E0
1.630649763E1,3.768563232E0,-7.531288605E0,1.717528381E0,8.594898523E0
1.631644663E1,4.227658539E0,-7.663164368E0,1.930385742E0,8.962341991E0
1.632639663E1,4.765789490E0,-7.835755463E0,1.843715973E0,9.354736860E0
1.633634563E1,5.172793121E0,-8.110434265E0,1.643432465E0,9.758985752E0
1.634629563E1,5.592220917E0,-8.419691162E0,1.309177551E0,1.019205965E1
1.635624462E1,5.955365753E0,-8.528664551E0,7.807763672E-1,1.043140029E1
1.636619463E1,6.200705566E0,-8.369695129E0,1.173559570E-1,1.041702062E1
1.637614363E1,6.257287903E0,-7.869585114E0,-4.703219604E-1,1.006504965E1
1.638609362E1,6.318660278E0,-7.167545013E0,-1.033899994E0,9.610833389E0
1.639604262E1,6.264922028E0,-6.521189117E0,-1.165476379E0,9.117756890E0
1.640599263E1,6.104904785E0,-6.052663422E0,-6.941065979E-1,8.624753962E0
1.641594163E1,6.051765289E0,-5.733676758E0,2.474354553E-1,8.340271973E0
1.642589162E1,6.099815369E0,-5.467380524E0,8.846603394E-1,8.239091044E0
1.643584062E1,5.955964508E0,-5.491480408E0,8.381071472E-1,8.144464002E0
1.644579063E1,5.537584534E0,-5.864654388E0,3.447331238E-1,8.073280281E0
1.645573963E1,5.260510712E0,-6.131250000E0,-1.166075134E-1,8.079529493E0
1.646568963E1,5.143154755E0,-6.348598022E0,-1.922003174E-1,8.172739972E0
1.647563863E1,5.178930359E0,-6.512656860E0,1.507365417E-1,8.322183641E0
1.648558863E1,5.403613129E0,-6.514902191E0,5.737568665E-1,8.483642045E0
1.649553762E1,5.811365204E0,-6.318959656E0,8.437953186E-1,8.626309014E0
1.650548763E1,6.163283386E0,-6.027066650E0,1.047371979E0,8.683811523E0
1.651543663E1,6.355633392E0,-5.720204773E0,1.195414124E0,8.633877077E0
1.652538662E1,6.470594330E0,-5.340444489E0,1.196761322E0,8.474737517E0
1.653533562E1,6.456822968E0,-4.979245605E0,1.005908203E0,8.215552382E0
1.654528563E1,6.267017670E0,-4.715494080E0,7.863148499E-1,7.882238637E0
1.655523463E1,5.955665131E0,-4.562512207E0,6.732998657E-1,7.532582392E0
1.656518462E1,5.549859009E0,-4.529880066E0,6.982978821E-1,7.197803023E0
1.657513362E1,5.147645416E0,-4.585564270E0,8.110134888E-1,6.941426070E0
1.658508363E1,4.805007935E0,-4.686155090E0,8.954379272E-1,6.771259843E0
1.659503362E1,4.536915436E0,-4.815486145E0,9.789642334E-1,6.688114791E0
1.660498263E1,4.379143524E0,-4.960684204E0,1.070723419E0,6.703113785E0
1.661493263E1,4.367617493E0,-5.162464600E0,1.163979492E0,6.861630387E0
1.662488163E1,4.522545319E0,-5.493875427E0,1.252146149E0,7.225230332E0
