"Time (s)","Acceleration x (m/s^2)","Acceleration y (m/s^2)","Acceleration z (m/s^2)","Absolute acceleration (m/s^2)"
-3.327083396E-4,-2.264191589E0,4.428091736E0,9.367370453E0,1.060576207E1
9.615291667E-3,-2.259850616E0,4.614304504E0,9.377698975E0,1.069298690E1
1.956329167E-2,-2.256707153E0,4.787644043E0,8.966054993E0,1.041174360E1
2.951229167E-2,-2.170785828E0,4.715643768E0,8.259224854E0,9.755224366E0
3.946029166E-2,-1.994901581E0,4.561763763E0,7.874075775E0,9.316136016E0
4.940829166E-2,-1.818568268E0,4.381388855E0,7.655081177E0,9.005777405E0
5.935629166E-2,-1.685644684E0,4.231550446E0,7.738457794E0,8.979484741E0
6.930429166E-2,-1.653760986E0,4.201163635E0,7.871980133E0,9.074842836E0
7.925229166E-2,-1.731748810E0,4.234244843E0,8.072263641E0,9.278427864E0
8.920029167E-2,-1.834734650E0,4.302053833E0,8.340056763E0,9.561927903E0
9.914829167E-2,-1.923799438E0,4.363875275E0,8.373736725E0,9.636590602E0
1.090962917E-1,-1.941462708E0,4.342918854E0,8.422235870E0,9.672863003E0
1.190442917E-1,-1.947300568E0,4.276906128E0,8.395441589E0,9.621192494E0
1.289922917E-1,-1.953138428E0,4.267775116E0,8.376131744E0,9.601470573E0
1.389402917E-1,-1.961970062E0,4.278403015E0,8.453520813E0,9.675539934E0
1.488882917E-1,-2.011816406E0,4.266577606E0,8.519683228E0,9.738382413E0
1.588362917E-1,-2.042053528E0,4.264032898E0,8.579558716E0,9.795957683E0
1.687842917E-1,-2.039059753E0,4.254003754E0,8.621471558E0,9.827720205E0
1.787332917E-1,-2.022893372E0,4.233496399E0,8.627908173E0,9.821170439E0
1.886812917E-1,-2.020198975E0,4.245321808E0,8.643176422E0,9.839129017E0
1.986292917E-1,-2.055076447E0,4.289030914E0,8.682544556E0,9.899783096E0
2.085772917E-1,-2.062411194E0,4.282145233E0,8.673862610E0,9.890712831E0
2.185252917E-1,-2.090103607E0,4.273313599E0,8.723110199E0,9.935914339E0
2.284732917E-1,-2.064057770E0,4.284989319E0,8.735684052E0,9.946539287E0
2.384212917E-1,-2.152074738E0,4.317022705E0,8.694070587E0,9.942583874E0
2.483692917E-1,-2.164498901E0,4.543202362E0,8.982520752E0,1.029618484E1
2.583172917E-1,-2.305056610E0,4.861141205E0,9.141190796E0,1.060685387E1
2.682652917E-1,-2.494562531E0,5.012626190E0,8.962462463E0,1.056763914E1
2.782132917E-1,-2.407743073E0,5.058730316E0,8.881630554E0,1.050101616E1
2.881612917E-1,-2.454595642E0,5.172194366E0,8.933422852E0,1.061049849E1
2.981059167E-1,-2.128423920E0,5.001399536E0,9.226213989E0,1.070827765E1
3.080539167E-1,-2.014061737E0,4.546495514E0,9.751771088E0,1.094641976E1
3.180019167E-1,-1.824855194E0,4.293072510E0,1.022897873E1,1.124244519E1
3.279499167E-1,-1.626367950E0,3.998934174E0,1.004201752E1,1.093062958E1
3.378989167E-1,-1.544488220E0,3.764671326E0,9.223968658E0,1.008165621E1
3.478469167E-1,-1.339714050E0,3.560645599E0,8.295150146E0,9.125927173E0
3.577949167E-1,-1.210682373E0,3.425326996E0,7.483687592E0,8.318905986E0
3.677429167E-1,-9.568103027E-1,3.598816223E0,7.166646881E0,8.076372433E0
3.776909167E-1,-1.057401123E0,3.409010925E0,6.625971222E0,7.526150893E0
3.876389167E-1,-1.289867706E0,3.082689514E0,6.320456543E0,7.149468809E0
3.975869167E-1,-1.169218597E0,3.057242432E0,6.640790405E0,7.403641038E0
4.075349167E-1,-7.289840698E-1,3.053649902E0,6.673123169E0,7.374738526E0
4.174829167E-1,-2.306703186E-1,2.756068726E0,6.113437042E0,6.709935625E0
4.274309167E-1,-7.214996338E-2,2.185305634E0,5.793252869E0,6.192135749E0
4.373789167E-1,-2.844085693E-3,1.507215729E0,5.592370605E0,5.791918191E0
4.473269167E-1,5.553451538E-2,9.327104187E-1,5.458698578E0,5.538088386E0
4.572749167E-1,-2.781216431E-1,1.035845947E-1,5.316194916E0,5.324472725E0
4.672229167E-1,-8.864566040E-1,-7.415579224E-1,6.755002899E0,6.853158223E0
4.771709167E-1,-1.432071991E0,-1.405427399E0,1.123773102E1,1.141545684E1
4.871199167E-1,-1.054407349E0,-2.038610687E0,1.242985199E1,1.263997345E1
4.970679167E-1,-5.456153870E-1,-1.920955353E0,9.284742279E0,9.497062957E0
5.070159167E-1,1.459315338E0,-1.284478912E0,8.340805206E0,8.564374981E0
5.169639167E-1,1.821412354E0,-1.237177277E0,9.860295410E0,1.010314684E1
5.269119167E-1,1.089584198E0,-9.234297180E-1,1.014530273E1,1.024534449E1
5.368599167E-1,1.688488770E-1,-6.301895142E-2,1.013572266E1,1.013732485E1
5.468079167E-1,-2.874023438E-2,7.885601807E-1,1.023122406E1,1.026160801E1
5.567559167E-1,9.654922485E-2,2.181862793E0,1.030472122E1,1.053361887E1
5.667039167E-1,5.149291992E-2,3.459456024E0,1.019724472E1,1.076820725E1
5.766519167E-1,1.908531189E-1,4.793182526E0,1.084839066E1,1.186164421E1
5.865999167E-1,1.619631958E-1,3.767515411E0,1.227701981E1,1.284311566E1
5.965479167E-1,1.014141083E0,2.062261505E0,1.344144836E1,1.363649291E1
6.064959167E-1,1.381327515E0,2.278412018E0,1.435395081E1,1.459914829E1
6.164439167E-1,1.503922577E0,2.693498840E0,1.486334152E1,1.518010673E1
6.263919167E-1,2.110311584E0,2.274220734E0,1.518711823E1,1.550077595E1
6.363409167E-1,2.424657898E0,2.061962128E0,1.557286606E1,1.589480453E1
6.462889167E-1,2.565814362E0,2.316432953E0,1.590218124E1,1.627355626E1
6.562369167E-1,2.837349701E0,2.663112030E0,1.631457367E1,1.677223995E1
6.661849167E-1,3.055296478E0,2.909200287E0,1.692021423E1,1.743823192E1
6.761329167E-1,3.270997925E0,2.881507874E0,1.745550110E1,1.799158230E1
6.860809167E-1,3.633244629E0,2.350561981E0,1.756192978E1,1.808720503E1
6.960289167E-1,3.893403625E0,2.070195007E0,1.704370743E1,1.760489313E1
7.059769167E-1,4.034560089E0,2.203867035E0,1.583691696E1,1.649068355E1
7.159249167E-1,3.929478607E0,2.356100464E0,1.422057816E1,1.494044359E1
7.258729167E-1,3.596271515E0,2.193239136E0,1.265782791E1,1.334031762E1
7.358209167E-1,3.063828735E0,2.053878937E0,1.124820923E1,1.183755363E1
7.457689167E-1,2.475102997E0,1.915416870E0,9.997410278E0,1.047583738E1
7.557169167E-1,1.972448273E0,1.775906982E0,8.852291565E0,9.241615862E0
7.656649167E-1,1.546134796E0,1.634451141E0,7.814200287E0,8.131647402E0
7.756129167E-1,1.161734161E0,1.641187134E0,6.936575317E0,7.222132552E0
7.855609167E-1,1.030157776E0,1.684147797E0,6.242319031E0,6.547070011E0
7.955099167E-1,1.102158051E0,1.646875305E0,5.649252319E0,5.986735538E0
8.054579167E-1,1.192570038E0,1.613943787E0,5.024002533E0,5.409957421E0
8.154059167E-1,1.149459686E0,1.724414063E0,4.330045624E0,4.800432953E0
8.253539167E-1,8.894503784E-1,1.849853210E0,3.649710388E0,4.187298030E0
8.353019167E-1,4.749623108E-1,1.863175507E0,3.135978699E0,3.678501674E0
8.452499167E-1,-5.748046875E-2,1.945204926E0,2.695594482E0,3.324658752E0
8.551979167E-1,-5.821394348E-1,2.227817230E0,2.267634430E0,3.231752132E0
8.651459167E-1,-1.017284546E0,2.646346893E0,1.876497803E0,3.399891723E0
8.750939167E-1,-1.297052765E0,2.972967682E0,1.614392853E0,3.623140488E0
8.850419167E-1,-1.503623199E0,3.300037537E0,1.631906433E0,3.976713351E0
8.949899167E-1,-1.702409821E0,3.501967621E0,1.888472900E0,4.327621322E0
9.049379167E-1,-1.836530914E0,3.641028442E0,2.306104431E0,4.684874765E0
9.148859167E-1,-1.869911499E0,3.710034943E0,2.817291412E0,5.019766846E0
9.248339167E-1,-1.690135345E0,3.727847900E0,3.236270142E0,5.217935596E0
9.347819167E-1,-1.202599182E0,3.757486267E0,3.648512878E0,5.373694638E0
9.447299167E-1,-6.849755859E-1,3.618425446E0,4.137545929E0,5.539086619E0
9.546789167E-1,-2.541714478E-1,3.599714355E0,4.663103027E0,5.896361286E0
9.646269167E-1,-4.370910645E-2,3.710484009E0,5.168601837E0,6.362707522E0
9.745749167E-1,-3.083587646E-2,3.975732422E0,5.714067535E0,6.961175687E0
9.845229167E-1,-9.774673462E-2,4.401447144E0,6.415508881E0,7.780812655E0
9.944709167E-1,5.313949585E-2,4.784799957E0,7.594756622E0,8.976495006E0
1.004418917E0,3.924838257E-1,5.146148529E0,9.336684265E0,1.066820328E1
1.014366917E0,8.170010376E-1,5.495671692E0,1.156420212E1,1.282967921E1
1.024314917E0,1.652413788E0,5.698499908E0,1.417552185E1,1.536713351E1
1.034262917E0,3.067421265E0,5.739813995E0,1.667203033E1,1.789723815E1
1.044210917E0,5.037025452E0,5.576054535E0,1.844928452E1,1.992084608E1
1.054158917E0,7.436236267E0,5.397924957E0,1.935624847E1,2.142660866E1
1.064106917E0,1.036774017E1,5.586981812E0,1.959634918E1,2.286309916E1
1.074054917E0,1.339040451E1,5.880671082E0,1.907767776E1,2.403836546E1
1.084002917E0,1.570459213E1,6.013145599E0,1.816996536E1,2.475762055E1
1.093950917E0,1.650737274E1,6.119873657E0,1.736359222E1,2.472732382E1
1.103898917E0,1.589858871E1,6.064039764E0,1.655991348E1,2.374380837E1
1.113847917E0,1.439137299E1,5.931116180E0,1.530761765E1,2.183146613E1
1.123795917E0,1.283730469E1,5.766159210E0,1.350237167E1,1.950279530E1
1.133743917E0,1.159833115E1,5.339246979E0,1.156480087E1,1.722711418E1
1.143691917E0,1.035875885E1,4.977000275E0,1.010743149E1,1.530472437E1
1.153639917E0,8.987909546E0,4.766537933E0,8.873996429E0,1.350000794E1
1.163587917E0,8.002508698E0,4.164938965E0,7.816595306E0,1.193675099E1
1.173535917E0,6.932833099E0,3.349434814E0,7.003635864E0,1.040835259E1
1.183483917E0,5.544769592E0,2.404599609E0,5.870791626E0,8.425720351E0
1.193431917E0,3.851939850E0,1.278042297E0,4.370162201E0,5.963987792E0
1.203379917E0,2.035766602E0,2.721340942E-1,2.550995178E0,3.275054049E0
1.213327917E0,5.322930908E-1,-8.232879639E-2,5.939648438E-1,8.018155654E-1
1.223275917E0,-5.757028198E-1,1.209484863E-1,-9.804611206E-1,1.143401190E0
1.233223917E0,-1.304836578E0,2.498304749E-1,-1.994602203E0,2.396549960E0
1.243171917E0,-1.772913208E0,4.303550720E-1,-2.650687866E0,3.217852218E0
1.253119917E0,-2.062710571E0,9.395960999E-1,-2.963686981E0,3.731093171E0
1.263068917E0,-2.132764893E0,1.711091766E0,-2.941982117E0,4.016438708E0
1.273016917E0,-1.982028351E0,2.372117157E0,-2.675087128E0,4.087966161E0
1.282964917E0,-1.943708038E0,3.005150757E0,-2.019300842E0,4.109319640E0
1.292916500E0,-1.395547943E0,3.153043213E0,-1.048719177E0,3.604032114E0
1.302864500E0,-3.794609070E-1,3.138523407E0,-1.854643250E-1,3.166814925E0
1.312812500E0,8.065228271E-1,3.644321594E0,2.881507874E-1,3.743606527E0
1.322760500E0,2.488125916E0,4.583169250E0,4.162843323E-1,5.231587101E0
1.332708500E0,3.598965912E0,4.871320038E0,4.866380310E-1,6.076111513E0
1.342656500E0,3.986510010E0,4.915777588E0,9.241781616E-1,6.396189227E0
1.352604500E0,4.588108978E0,5.017116852E0,1.211131439E0,6.905725513E0
1.362552500E0,5.508993988E0,5.051096191E0,1.210532684E0,7.571524079E0
1.372500500E0,6.427483978E0,5.183720398E0,1.147364044E0,8.336663104E0
1.382448500E0,7.422913971E0,5.523663483E0,1.104553070E0,9.318291022E0
1.392396500E0,8.472231903E0,5.802982635E0,1.188977509E0,1.033764908E1
1.402344500E0,9.459878082E0,6.051615601E0,1.649270325E0,1.135039371E1
1.412292500E0,1.064765808E1,6.263574829E0,2.609074402E0,1.262585686E1
1.422241500E0,1.222118591E1,6.137985992E0,3.443738708E0,1.410289309E1
1.432189500E0,1.386865997E1,5.868546295E0,4.288881226E0,1.565803523E1
1.442137500E0,1.542736862E1,5.610782318E0,5.207670593E0,1.722220700E1
1.452085500E0,1.701990692E1,5.182373199E0,6.059698792E0,1.879505714E1
1.462033500E0,1.851005814E1,5.096751251E0,6.716532898E0,2.033988544E1
1.471981500E0,1.964888992E1,5.304219818E0,6.959627380E0,2.150930116E1
1.481929500E0,2.056962524E1,5.629343719E0,6.852150879E0,2.239979833E1
1.491877500E0,2.118948624E1,5.839356995E0,6.660998383E0,2.296652600E1
1.501825500E0,2.109218857E1,5.794001312E0,6.445746002E0,2.280347586E1
1.511773500E0,2.002386017E1,5.481900330E0,6.263275452E0,2.168489859E1
1.521721500E0,1.829600327E1,5.242697754E0,5.681884460E0,1.986236205E1
1.531669500E0,1.656081161E1,5.190456390E0,4.591252441E0,1.795218421E1
1.541617500E0,1.477442642E1,5.006189575E0,3.480861511E0,1.598317888E1
1.551565500E0,1.316617081E1,4.893174591E0,2.542163544E0,1.427423577E1
1.561513500E0,1.169503006E1,4.800367584E0,1.968855743E0,1.279428193E1
1.571461500E0,1.020921982E1,4.530179443E0,1.763782196E0,1.130759138E1
1.581410500E0,9.076076202E0,4.517455902E0,1.341061249E0,1.022648583E1
1.591358500E0,8.236023102E0,4.978497162E0,9.096583557E-1,9.666694825E0
1.601306500E0,7.260352020E0,5.361849976E0,7.256909180E-1,9.054765261E0
1.611254500E0,6.193071442E0,5.436544647E0,8.228388977E-1,8.281739880E0
1.621202500E0,5.077890472E0,5.285209351E0,9.746232605E-1,7.393801460E0
1.631150500E0,3.959266663E0,5.093308411E0,9.487271118E-1,6.520557200E0
1.641098500E0,2.982098694E0,4.973108368E0,5.743556213E-1,5.827057906E0
1.651046500E0,2.132764893E0,4.773423615E0,3.832031250E-2,5.228358015E0
1.660994500E0,1.556613007E0,4.514761505E0,-4.269122314E-1,4.794618812E0
1.670942500E0,1.170865173E0,4.299509125E0,-5.439688110E-1,4.489165405E0
1.680890500E0,8.321195984E-1,4.077670441E0,-3.326083374E-1,4.174978749E0
1.690838500E0,5.626799011E-1,3.785927124E0,-2.993774414E-4,3.827512632E0
1.700786500E0,6.346801758E-1,3.455414429E0,4.540058899E-1,3.542432660E0
1.710734500E0,1.145567780E0,3.120860138E0,9.045689392E-1,3.445335761E0
1.720682500E0,1.866318970E0,2.846630402E0,1.345851288E0,3.660296003E0
1.730630500E0,2.578687592E0,2.566113739E0,1.735790405E0,4.030823458E0
1.740579500E0,3.214415588E0,2.299518127E0,2.196382599E0,4.521542625E0
1.750527500E0,3.761527863E0,2.139500885E0,2.630779266E0,5.064341561E0
1.760475500E0,4.326153717E0,2.102527771E0,3.105891266E0,5.725625692E0
1.770423500E0,4.987478485E0,2.173180847E0,3.655997314E0,6.554690915E0
1.780371500E0,5.894741821E0,2.490221558E0,4.295617218E0,7.707237626E0
1.790319500E0,7.251819763E0,2.572700043E0,5.179978180E0,9.275766779E0
1.800267500E0,8.763675842E0,2.573448486E0,6.136638794E0,1.100377149E1
1.810215500E0,1.008243347E1,2.619402924E0,7.229067078E0,1.267975344E1
1.820163500E0,1.137754028E1,2.429148560E0,8.408913574E0,1.435475577E1
1.830111500E0,1.286035675E1,1.951491852E0,9.505084076E0,1.611036063E1
1.840059500E0,1.443672867E1,1.396595764E0,1.046503784E1,1.788537479E1
1.850007500E0,1.620904312E1,7.656578064E-1,1.155911270E1,1.992316233E1
1.859955500E0,1.793345718E1,2.621049500E-1,1.263732056E1,2.194036136E1
1.869903500E0,1.906046356E1,-7.873626709E-2,1.327679077E1,2.322887522E1
1.879851500E0,1.961580872E1,-3.920347595E-1,1.349279160E1,2.381153225E1
1.889799500E0,1.982088226E1,-5.743556213E-1,1.344803467E1,2.395927575E1
1.899748500E0,1.987447083E1,-4.625381470E-1,1.316841614E1,2.384566451E1
1.909696500E0,1.950219498E1,-1.953437805E-1,1.276096344E1,2.330699371E1
1.919644500E0,1.852338043E1,2.606080627E-1,1.233704498E1,2.225727338E1
1.929592500E0,1.705179062E1,6.030958557E-1,1.185819077E1,2.077844980E1
1.939540500E0,1.528651154E1,7.209008789E-1,1.102921463E1,1.886374057E1
1.949488500E0,1.330193848E1,7.828720093E-1,1.000923569E1,1.666551094E1
1.959436500E0,1.123818008E1,8.078700256E-1,8.918903046E0,1.436997485E1
1.969384500E0,9.337881775E0,1.020727386E0,7.936046906E0,1.229710376E1
1.979332500E0,7.707921295E0,1.333876190E0,6.858737183E0,1.040353556E1
1.989280500E0,6.343508606E0,1.641785889E0,5.641318817E0,8.646388861E0
1.999228500E0,5.135670319E0,1.975891113E0,4.287384338E0,6.975737938E0
2.009176500E0,4.076323242E0,2.359543304E0,2.978206787E0,5.572573144E0
2.019124500E0,3.144061890E0,2.726580048E0,1.755100250E0,4.516607223E0
2.029072500E0,2.478994904E0,3.201991425E0,6.774911499E-1,4.105747079E0
2.039020500E0,2.143991547E0,3.897894287E0,-1.692979431E-1,4.451846967E0
2.048968500E0,1.803599396E0,4.615801392E0,-9.116043091E-1,5.038810939E0
2.058916500E0,1.325044556E0,5.099295959E0,-1.537452850E0,5.488380783E0
2.068865500E0,1.029559021E0,5.108876038E0,-1.891766052E0,5.544311043E0
2.078813500E0,7.767347717E-1,4.806804199E0,-1.873054962E0,5.216993234E0
2.088761500E0,5.519023132E-1,4.438270569E0,-1.497336273E0,4.716445454E0
2.098709500E0,4.767585754E-1,3.949836273E0,-9.707313538E-1,4.095219736E0
2.108657500E0,5.301974487E-1,3.479065247E0,-2.682421875E-1,3.529441627E0
2.118605500E0,9.023236084E-1,2.991229706E0,2.201921082E-1,3.132112324E0
2.128553500E0,1.554667053E0,2.508633270E0,4.363426208E-1,2.983391596E0
2.138501500E0,2.394121399E0,2.078278198E0,5.728587341E-1,3.221680411E0
2.148449500E0,3.035687256E0,1.547931061E0,8.081694031E-1,3.502088729E0
2.158397500E0,3.512745209E0,1.071322174E0,1.188229065E0,3.859922073E0
2.168345500E0,3.974983978E0,7.213499451E-1,1.749711456E0,4.402537172E0
2.178293500E0,4.584516449E0,5.595364380E-1,2.461631012E0,5.233593348E0
2.188241500E0,5.245092773E0,3.878434753E-1,3.297343140E0,6.207567361E0
2.198189500E0,5.752238159E0,3.457809448E-1,4.354295197E0,7.222720745E0
2.208137500E0,6.269113312E0,4.242178345E-1,5.669609985E0,8.463227509E0
2.218085500E0,6.843468933E0,2.412982178E-1,7.216193848E0,9.948102609E0
2.228033500E0,7.677684174E0,-1.932481384E-1,8.886420593E0,1.174532460E1
2.237982500E0,9.012308807E0,-6.071374512E-1,1.035875885E1,1.374387903E1
2.247930500E0,1.083402054E1,-1.012793884E0,1.131676666E1,1.569939362E1
2.257878500E0,1.310180466E1,-1.528920593E0,1.214619186E1,1.793111431E1
2.267826500E0,1.541689041E1,-2.039209442E0,1.316736832E1,2.037691030E1
2.277774500E0,1.725476852E1,-2.242636414E0,1.404604111E1,2.236174693E1
2.287722500E0,1.855032440E1,-2.049537964E0,1.405053177E1,2.336092002E1
2.297666917E0,1.917168228E1,-1.773961029E0,1.352078339E1,2.352683410E1
2.307614917E0,1.890433823E1,-1.201401672E0,1.294268555E1,2.294189353E1
2.317562917E0,1.775727356E1,-5.034031677E-1,1.242146942E1,2.167641764E1
2.327510917E0,1.594484253E1,-7.080276489E-2,1.185998703E1,1.987214907E1
2.337458917E0,1.403526352E1,1.959425354E-1,1.105555984E1,1.786763608E1
2.347406917E0,1.230381409E1,5.183720398E-1,9.997559967E0,1.586202244E1
2.357354917E0,1.074944641E1,9.071136475E-1,8.825497284E0,1.393782105E1
2.367302917E0,9.123228149E0,1.246158600E0,7.738757172E0,1.202807406E1
2.377250917E0,7.474406891E0,1.598226471E0,6.939269714E0,1.032349507E1
2.387198917E0,5.911956024E0,2.007924500E0,6.420149231E0,8.955517907E0
2.397147917E0,4.518503723E0,2.494263153E0,5.995033264E0,7.910666749E0
2.407095917E0,3.289559326E0,3.038231964E0,5.599405975E0,7.169756014E0
2.417043917E0,2.321971436E0,3.725752258E0,4.911436615E0,6.587487447E0
2.426991917E0,1.691183167E0,4.323908386E0,3.907174988E0,6.068138151E0
2.436939917E0,1.346450043E0,4.920268250E0,2.755919037E0,5.798021827E0
2.446887917E0,9.617500305E-1,5.477110291E0,1.696422272E0,5.813909939E0
2.456835917E0,6.342311096E-1,5.648803253E0,1.077010345E0,5.785428124E0
2.466783917E0,3.167413330E-1,5.507048035E0,1.238823853E0,5.653546468E0
2.476731917E0,-1.047821045E-1,5.335953827E0,2.133513336E0,5.747630963E0
2.486679917E0,-3.141966248E-1,4.998854828E0,3.377725983E0,6.041216924E0
2.496627917E0,-1.901046753E-1,4.288432159E0,4.538562012E0,6.247026117E0
2.506575917E0,4.179309082E-1,3.361559601E0,5.408403168E0,6.381659190E0
2.516523917E0,1.303339691E0,2.785557404E0,5.623206482E0,6.409249218E0
2.526471917E0,2.216141510E0,2.258204041E0,5.429958344E0,6.284521962E0
2.536419917E0,2.881358185E0,1.717528381E0,5.571713562E0,6.503546782E0
2.546367917E0,3.225941620E0,1.197809143E0,6.226452026E0,7.114081172E0
2.556315917E0,3.519481201E0,8.009843445E-1,7.221732330E0,8.073521022E0
2.566263917E0,3.878285065E0,3.858975220E-1,8.432863770E0,9.289951738E0
2.576212917E0,4.349505157E0,-2.269281006E-1,9.906399536E0,1.082157305E1
2.586160917E0,5.109474792E0,-8.494834900E-1,1.116004257E1,1.230345094E1
2.596108917E0,6.006858673E0,-1.307680664E0,1.181537979E1,1.331899318E1
2.606056917E0,7.129673767E0,-1.732347565E0,1.230635880E1,1.432758678E1
2.616004917E0,8.564440155E0,-2.187101898E0,1.266531235E1,1.544484337E1
2.625952917E0,1.036774017E1,-2.713407440E0,1.293026138E1,1.679417386E1
2.635900917E0,1.224678268E1,-3.132685547E0,1.343426331E1,1.844659414E1
2.645848917E0,1.386701340E1,-3.540138245E0,1.423584641E1,2.018628154E1
2.655796917E0,1.508473114E1,-3.978127441E0,1.479628098E1,2.150126839E1
2.665744917E0,1.599992798E1,-4.307742004E0,1.454076233E1,2.204513791E1
2.675692917E0,1.676723236E1,-4.309238892E0,1.347857117E1,2.194040796E1
2.685640917E0,1.713920883E1,-3.888613586E0,1.185145477E1,2.119742379E1
2.695588917E0,1.687860077E1,-3.409160614E0,1.044961990E1,2.014209761E1
2.705536917E0,1.612207397E1,-2.812800751E0,9.628726959E0,1.898803571E1
2.715484917E0,1.485106705E1,-2.313738556E0,9.080866241E0,1.756045871E1
2.725432917E0,1.309626617E1,-1.667981415E0,8.702752533E0,1.581240815E1
2.735380917E0,1.138262970E1,-1.247505798E0,8.416398010E0,1.421113243E1
2.745329917E0,9.998907166E0,-9.524693298E-1,7.847730560E0,1.274645901E1
2.755277917E0,8.766819305E0,-5.246589661E-1,6.865024109E0,1.114723929E1
2.765225917E0,7.502997437E0,-3.772155762E-2,5.741610260E0,9.447882399E0
2.775173917E0,6.284082184E0,4.791535950E-1,4.738546143E0,7.884991858E0
2.785121917E0,5.132676544E0,9.430389404E-1,3.924389191E0,6.529511580E0
2.795069917E0,4.082310791E0,1.344803467E0,3.286415863E0,5.410571780E0
2.805017917E0,3.021616516E0,1.708397369E0,2.759062500E0,4.434096731E0
2.814965917E0,1.940863953E0,2.049238586E0,2.257305908E0,3.614105924E0
2.824913917E0,9.680369568E-1,2.435734863E0,1.675615540E0,3.110882079E0
2.834861917E0,3.433859253E-1,2.783461761E0,1.008003845E0,2.980208889E0
2.844809917E0,1.625619507E-1,2.840642853E0,4.369413757E-1,2.878644815E0
2.854757917E0,2.140548706E-1,2.836002502E0,8.457412720E-2,2.845326425E0
2.864705917E0,3.106040955E-1,2.802322540E0,1.951940918E-1,2.826231989E0
2.874653917E0,3.278182983E-1,2.590063934E0,7.640112305E-1,2.720222267E0
2.884601917E0,3.436853027E-1,2.279010773E0,1.486408997E0,2.742520993E0
2.894549917E0,5.938151550E-1,2.048939209E0,2.108964386E0,2.999749840E0
2.904497917E0,1.202299805E0,1.828298035E0,2.449356537E0,3.284439978E0
2.914445917E0,2.072739716E0,1.644629974E0,2.499651947E0,3.639961200E0
2.924394917E0,2.904559937E0,1.509011993E0,2.531535645E0,4.137905067E0
2.934342917E0,3.601061554E0,1.531165924E0,2.682272186E0,4.744122414E0
2.944290917E0,4.285588074E0,1.744472351E0,2.787653046E0,5.401893966E0
2.954238917E0,4.995112610E0,1.926493835E0,3.119962006E0,6.196506387E0
2.964186917E0,5.802084503E0,2.040107574E0,4.003724213E0,7.338666845E0
2.974134917E0,6.685996399E0,2.175276489E0,5.330265656E0,8.823044124E0
2.984082917E0,7.335346069E0,2.198927307E0,7.006180573E0,1.037926536E1
2.994030917E0,8.065677338E0,1.446741486E0,9.277257843E0,1.237803397E1
3.003978917E0,8.829838257E0,5.533992004E-1,1.129356491E1,1.434632018E1
3.013926917E0,9.772877197E0,4.843927002E-1,1.208032883E1,1.554599979E1
3.023874917E0,1.104223755E1,6.598278809E-1,1.189920547E1,1.624676810E1
3.033822917E0,1.230965195E1,6.017486572E-1,1.185654419E1,1.710167456E1
3.043770917E0,1.334160599E1,4.646337891E-1,1.217807556E1,1.806986052E1
3.053718917E0,1.404559204E1,3.300636292E-1,1.259974869E1,1.887170540E1
3.063666917E0,1.457803482E1,-2.131567383E-1,1.336525681E1,1.977864061E1
3.073614917E0,1.509790375E1,-1.033151550E0,1.430545166E1,2.082450592E1
3.083562917E0,1.571372314E1,-1.574725342E0,1.468760696E1,2.156679516E1
3.093510917E0,1.634421204E1,-1.539099426E0,1.402762939E1,2.159343605E1
3.103459917E0,1.646935181E1,-1.335223389E0,1.290795776E1,2.096754025E1
3.113407917E0,1.594364502E1,-9.764195251E-1,1.193213699E1,1.993813193E1
3.123355917E0,1.501542526E1,-6.734495544E-1,1.113998428E1,1.870870867E1
3.133303917E0,1.361718292E1,-2.878514099E-1,1.037178177E1,1.711970754E1
3.143251917E0,1.192315567E1,3.020718384E-1,9.289232941E0,1.511763001E1
3.153199917E0,1.013721954E1,1.008752289E0,7.823480988E0,1.284475208E1
3.163147917E0,8.170908508E0,1.537303162E0,6.615792389E0,1.062524145E1
3.173095917E0,6.118376770E0,1.822011108E0,5.312303009E0,8.305108189E0
3.183043917E0,4.075425110E0,2.165846100E0,4.044888611E0,6.136864267E0
3.192991917E0,2.448757782E0,2.506837006E0,2.943479004E0,4.576539642E0
3.202939917E0,1.211580505E0,2.990481262E0,1.663939819E0,3.630372050E0
3.212887917E0,4.080514526E-1,3.971391449E0,8.637039185E-2,3.993233761E0
3.222835917E0,-1.257385254E-2,5.155878296E0,-1.562899933E0,5.387568589E0
3.232783917E0,-3.031196594E-1,6.097120972E0,-2.860252075E0,6.741498914E0
3.242731917E0,-6.846762085E-1,6.793921967E0,-3.418441315E0,7.636222772E0
3.252679917E0,-9.785151672E-1,6.443500671E0,-2.611619110E0,7.021164235E0
3.262627917E0,-1.109792175E0,5.422623596E0,-4.578977966E-1,5.553931556E0
3.272576917E0,-8.622070313E-1,4.170178070E0,1.620230713E0,4.556197281E0
3.282524917E0,-3.239263916E-1,2.843187561E0,3.025508423E0,4.164414128E0
3.292472917E0,6.048921204E-1,2.024989014E0,3.908522186E0,4.443311903E0
3.302421917E0,2.006128235E0,1.584604797E0,3.994593201E0,4.742604527E0
3.312369917E0,3.291505280E0,1.230890350E0,3.875890045E0,5.231789532E0
3.322317917E0,4.273163910E0,1.253343658E0,4.222120056E0,6.136537941E0
3.332265917E0,4.985083466E0,1.356628876E0,5.110821991E0,7.267186559E0
3.342213917E0,5.435646515E0,1.337169342E0,6.393654327E0,8.497828578E0
3.352161917E0,5.722001038E0,1.437011719E0,7.968679047E0,9.914945502E0
3.362109917E0,5.997877350E0,1.385668488E0,9.658664703E0,1.145357646E1
3.372057917E0,6.395151215E0,1.092278595E0,1.123997635E1,1.297798520E1
3.382005917E0,7.086264038E0,7.816744995E-1,1.219918167E1,1.412962089E1
3.391953917E0,8.025560760E0,4.266128540E-1,1.245050903E1,1.481913625E1
3.401901917E0,9.055568848E0,-1.002914429E-2,1.255035141E1,1.547626403E1
3.411849917E0,1.026819717E1,-3.788621521E-1,1.278670990E1,1.640363861E1
3.421797917E0,1.160806091E1,-8.963360596E-1,1.318203781E1,1.758739939E1
3.431745917E0,1.302905594E1,-1.568887482E0,1.402703064E1,1.920872966E1
3.441693917E0,1.407762543E1,-2.302511902E0,1.499596573E1,2.069686176E1
3.451642917E0,1.467772751E1,-2.695444794E0,1.553664139E1,2.154270951E1
3.461590917E0,1.524205399E1,-2.655777283E0,1.548978882E1,2.189307928E1
3.471538917E0,1.556672882E1,-2.575244751E0,1.512394958E1,2.185609258E1
3.481486917E0,1.536390060E1,-2.484383698E0,1.455213867E1,2.130695530E1
3.491434917E0,1.454585175E1,-2.182311859E0,1.345432159E1,1.993396743E1
3.501382917E0,1.314656158E1,-1.965562592E0,1.229857498E1,1.810940265E1
3.511330917E0,1.136930740E1,-1.822609863E0,1.146406036E1,1.624831491E1
3.521278917E0,9.754166107E0,-1.651365967E0,1.038166122E1,1.434049008E1
3.531226917E0,8.183332672E0,-1.408121796E0,9.006021881E0,1.224982329E1
3.541174917E0,6.754404144E0,-1.144669647E0,7.492070160E0,1.015201257E1
3.551122917E0,5.553002472E0,-8.228388977E-1,5.985453186E0,8.206006955E0
3.561070917E0,4.446054382E0,-4.626878357E-1,4.615502014E0,6.425288978E0
3.571018917E0,3.599115601E0,-3.547622681E-2,3.337759094E0,4.908719532E0
3.580966917E0,3.099604340E0,4.800517273E-1,2.283950500E0,3.880003429E0
3.590914917E0,2.602338409E0,9.563612366E-1,1.538949738E0,3.170986961E0
3.600862917E0,2.107467499E0,1.315614166E0,1.119372253E0,2.724931950E0
3.610810917E0,1.825753326E0,1.709744568E0,9.274713135E-1,2.667734007E0
3.620758917E0,1.528321838E0,2.167193298E0,6.930587769E-1,2.740953283E0
3.630706917E0,1.312021637E0,2.529589691E0,4.207749939E-1,2.880499328E0
3.640655917E0,1.162183228E0,2.615061951E0,3.317102051E-1,2.880841981E0
3.650603917E0,8.475375366E-1,2.716999969E0,3.887416077E-1,2.872547432E0
3.660551917E0,8.132588196E-1,2.670746155E0,5.046006775E-1,2.837057767E0
3.670499917E0,1.017883301E0,2.375709686E0,5.861810303E-1,2.650224732E0
3.680447917E0,1.407672729E0,2.014061737E0,7.056326294E-1,2.556541531E0
3.690395917E0,1.932780762E0,1.574875031E0,8.372090149E-1,2.629979424E0
3.700343917E0,2.703977051E0,8.827143860E-1,9.327104187E-1,2.993430357E0
3.710291917E0,3.382216644E0,5.454656982E-1,1.063837738E0,3.587293268E0
3.720239917E0,3.631598053E0,7.855664063E-1,1.077459412E0,3.868660980E0
3.730187917E0,3.736080780E0,1.203647003E0,1.214873657E0,4.108890812E0
3.740135917E0,3.868555298E0,1.445244598E0,1.674118652E0,4.456133448E0
3.750083917E0,4.146377563E0,1.619182892E0,2.622845764E0,5.166577207E0
3.760031917E0,4.652175751E0,1.773811340E0,3.742966461E0,6.228879820E0
3.769979917E0,5.381159821E0,1.812580719E0,4.882397003E0,7.488666795E0
3.779927917E0,6.376440125E0,1.760189667E0,6.023923187E0,8.946781929E0
3.789875917E0,7.338489532E0,1.716779938E0,7.239994354E0,1.045075501E1
3.799823917E0,8.271349640E0,1.532363434E0,8.487649841E0,1.195004445E1
3.809771917E0,9.112001495E0,1.404828644E0,9.523196411E0,1.325493812E1
3.819719917E0,1.008437943E1,1.336720276E0,1.034678375E1,1.450990915E1
3.829668917E0,1.182795364E1,1.030457153E0,1.096769257E1,1.616331060E1
3.839616917E0,1.417537216E1,3.338058472E-1,1.197315170E1,1.855825865E1
3.849564917E0,1.599259323E1,-7.342231750E-1,1.311692322E1,2.069675812E1
3.859512917E0,1.739487717E1,-1.540895691E0,1.306183777E1,2.180751515E1
3.869460917E0,1.889715317E1,-1.637295227E0,1.166688858E1,2.226879931E1
3.879408917E0,2.002475830E1,-1.325493622E0,1.037327866E1,2.259098910E1
3.889356917E0,2.012714539E1,-1.233435059E0,9.535171509E0,2.230566832E1
3.899304917E0,1.973391312E1,-1.097368011E0,8.984466705E0,2.171064682E1
3.909252917E0,1.923709625E1,-7.451504517E-1,8.732690277E0,2.113956009E1
3.919200917E0,1.880329834E1,-2.266287231E-1,8.282426605E0,2.054784610E1
3.929148917E0,1.816697159E1,2.210902405E-1,7.711962891E0,1.973732781E1
3.939096917E0,1.698173630E1,8.229885864E-1,7.134164429E0,1.843781386E1
3.949044917E0,1.544398407E1,1.415456543E0,6.484066315E0,1.680961859E1
3.958992917E0,1.369576950E1,1.845661926E0,5.679339752E0,1.494106657E1
3.968940917E0,1.160312119E1,2.065854034E0,4.913981323E0,1.276900100E1
3.978888917E0,9.439819794E0,2.284848633E0,4.261039124E0,1.060599762E1
3.988836917E0,7.387737122E0,2.380200348E0,3.495381317E0,8.512444069E0
3.998784917E0,5.629643097E0,2.362537079E0,2.703527985E0,6.677089666E0
4.008733917E0,4.083957367E0,2.940784607E0,1.740879822E0,5.325183981E0
4.018681917E0,2.928959198E0,3.560346222E0,5.092410278E-1,4.638339533E0
4.028629917E0,1.994153137E0,4.038302307E0,-6.927593994E-1,4.556802371E0
4.038577917E0,1.145118713E0,4.412524109E0,-1.589245148E0,4.827770295E0
4.048525917E0,3.540138245E-1,4.749772797E0,-2.008523254E0,5.169123047E0
4.058473917E0,-3.977229309E-1,5.002597046E0,-1.979783020E0,5.394784661E0
4.068421917E0,-7.556286621E-1,4.980592804E0,-1.597777405E0,5.284900376E0
4.078369917E0,-9.771679688E-1,4.665498047E0,-8.830137634E-1,4.847828645E0
4.088317917E0,-9.364526367E-1,4.207151184E0,-1.287322998E-2,4.310131129E0
4.098265917E0,-5.077441406E-1,3.785777435E0,5.526507568E-1,3.859447857E0
4.108213917E0,2.315684509E-1,3.405867462E0,9.062155151E-1,3.531965979E0
4.118161917E0,1.030008087E0,3.054548035E0,1.169068909E0,3.428979800E0
4.128109917E0,1.560504913E0,2.891387329E0,1.435514832E0,3.585526336E0
4.138057917E0,1.890119476E0,2.906056824E0,1.999541931E0,4.001985236E0
4.148005917E0,2.112706604E0,3.032992859E0,2.841391296E0,4.662196840E0
4.157953917E0,2.327509918E0,3.158282318E0,3.920946350E0,5.546699009E0
4.167901917E0,2.624791718E0,3.175047455E0,5.029391327E0,6.501171819E0
4.177849917E0,3.218008118E0,3.072360992E0,6.097719727E0,7.548321944E0
4.187797917E0,4.724475403E0,2.877316589E0,7.495063934E0,9.315342289E0
4.197746917E0,6.952142944E0,2.422861633E0,9.221274261E0,1.179976479E1
4.207694917E0,8.354127502E0,1.219663696E0,1.043150757E1,1.341996185E1
4.217642917E0,9.945468292E0,5.978567505E-1,1.072669373E1,1.464007276E1
4.227590917E0,1.255963211E1,5.345384216E-1,1.098056580E1,1.669140244E1
4.237538917E0,1.561477890E1,-4.240681458E-1,1.183708466E1,1.959892158E1
4.247486917E0,1.842204117E1,-2.016606445E0,1.315150131E1,2.272444255E1
4.257434917E0,2.076586716E1,-3.557951202E0,1.417746780E1,2.539450430E1
4.267382917E0,2.253473877E1,-4.273612976E0,1.427671143E1,2.701671165E1
4.277330917E0,2.385319702E1,-4.170776825E0,1.339534424E1,2.767319343E1
4.287278917E0,2.429373093E1,-3.365900574E0,1.168904251E1,2.716888595E1
4.297226125E0,2.380290161E1,-2.752476196E0,9.989327087E0,2.596037184E1
4.307174125E0,2.249671783E1,-2.463726654E0,9.126371613E0,2.440210895E1
4.317122125E0,2.050196594E1,-1.988464966E0,8.770262146E0,2.238754338E1
4.327070125E0,1.803569458E1,-1.373693390E0,8.237669678E0,1.987542488E1
4.337018125E0,1.545101944E1,-6.906637573E-1,7.438481598E0,1.716222674E1
4.346966125E0,1.275602371E1,-7.753875732E-2,6.452032928E0,1.429513491E1
4.356914125E0,1.028211823E1,4.505630493E-1,5.359604645E0,1.160389263E1
4.366862125E0,7.840096436E0,9.186396790E-1,4.234394531E0,8.957740118E0
4.376810125E0,5.434449005E0,1.634301453E0,2.985840912E0,6.412442840E0
4.386759125E0,3.578608246E0,2.359243927E0,1.583107910E0,4.569321562E0
4.396707125E0,2.063459015E0,3.134032745E0,1.630110168E-1,3.755874991E0
4.406655125E0,5.749543762E-1,3.993695068E0,-9.756710815E-1,4.151157296E0
4.416603125E0,-8.119116211E-1,4.945266266E0,-1.801803131E0,5.325537855E0
4.426551125E0,-1.687141571E0,5.797294464E0,-2.257904663E0,6.446177414E0
4.436499125E0,-1.732646942E0,6.299799500E0,-2.268532562E0,6.916341457E0
4.446447125E0,-1.627415771E0,6.767277374E0,-1.744322662E0,7.175457247E0
4.456395125E0,-1.601220245E0,6.957831116E0,-1.102607117E0,7.224338209E0
4.466343125E0,-1.162183228E0,6.609505463E0,-3.854484558E-1,6.721964209E0
4.476291125E0,-4.827461243E-1,6.197711792E0,3.522175598E-1,6.226454247E0
4.486239125E0,2.610571289E-1,5.779182129E0,7.985893250E-1,5.839935086E0
4.496187125E0,1.235830078E0,5.374872894E0,8.881031799E-1,5.586167011E0
4.506135125E0,2.286944275E0,4.839286652E0,9.641450500E-1,5.438601391E0
4.516083125E0,3.294648743E0,4.195026398E0,1.195264435E0,5.466407768E0
4.526031125E0,4.236041107E0,3.829187164E0,1.404080200E0,5.880319703E0
4.535979125E0,5.309159546E0,3.486100616E0,1.755399628E0,6.589499256E0
4.545927125E0,6.352040863E0,3.061733093E0,2.486329651E0,7.476929035E0
4.555875125E0,7.541018372E0,2.430196381E0,3.687282257E0,8.738928022E0
4.565823125E0,8.950786743E0,1.997595978E0,5.221591644E0,1.055329296E1
4.575771125E0,1.066038162E1,1.638792114E0,6.864275665E0,1.278466489E1
4.585720125E0,1.255559052E1,1.078058167E0,8.488847351E0,1.519426181E1
4.595668125E0,1.470077957E1,2.029779053E-1,9.916578369E0,1.773394053E1
4.605616125E0,1.718142105E1,-8.857081604E-1,1.063747925E1,2.022725075E1
4.615564125E0,1.994647110E1,-2.044598236E0,1.061113403E1,2.268563988E1
4.625512125E0,2.260329620E1,-2.659818878E0,1.018347336E1,2.493364725E1
4.635460125E0,2.470387802E1,-2.332299957E0,1.006686584E1,2.677803205E1
4.645408125E0,2.516402115E1,-1.254391479E-1,1.020457947E1,2.715468905E1
4.655356125E0,2.347687958E1,1.777553558E0,1.034663406E1,2.571723951E1
4.665304125E0,2.117975647E1,2.245929565E0,1.126781845E1,2.409543559E1
4.675252125E0,1.892349838E1,3.431464233E0,1.217343521E1,2.276106901E1
4.685200125E0,1.707349548E1,4.303251343E0,1.239976456E1,2.153546798E1
4.695148125E0,1.520987091E1,4.673431549E0,1.245874191E1,2.020894321E1
4.705096125E0,1.381177826E1,4.653223572E0,1.259690460E1,1.926394855E1
4.715044125E0,1.239662109E1,5.040917358E0,1.207179657E1,1.802263396E1
4.724992125E0,1.131077911E1,5.088368683E0,1.081411194E1,1.645509760E1
4.734940125E0,1.025786865E1,4.856500854E0,9.577982483E0,1.485083224E1
4.744888125E0,8.779542847E0,4.738097076E0,8.067473602E0,1.283020136E1
4.754836125E0,7.130272522E0,4.682263184E0,6.414910126E0,1.067311795E1
4.764784125E0,5.325924683E0,4.572691040E0,4.942571869E0,8.585103013E0
4.774733125E0,3.484753418E0,4.398603058E0,3.606749725E0,6.670821451E0
4.784681125E0,1.590592346E0,4.351600800E0,2.271526337E0,5.160062541E0
4.794629125E0,-9.729766846E-2,4.734803925E0,9.116043091E-1,4.822743769E0
4.804577125E0,-1.439257050E0,5.366340637E0,-2.980302429E-1,5.563981912E0
4.814525125E0,-2.847977600E0,6.259533234E0,-1.495090942E0,7.037615338E0
4.824473125E0,-4.140539703E0,6.654861145E0,-2.361788635E0,8.185920318E0
4.834421125E0,-5.162165222E0,6.615642700E0,-2.717898102E0,8.820524259E0
4.844369125E0,-6.016887817E0,6.345155182E0,-2.568508759E0,9.113790130E0
4.854317125E0,-6.571334839E0,6.064488831E0,-2.195484467E0,9.207639132E0
4.864265125E0,-6.551426239E0,5.588927765E0,-1.621577911E0,8.762808582E0
4.874213125E0,-5.963448944E0,4.958139496E0,-8.901988220E-1,7.806300309E0
4.884161125E0,-4.927752686E0,4.442461853E0,-6.631210327E-2,6.634953741E0
4.894109125E0,-3.438050537E0,4.161795502E0,8.205935669E-1,5.460229583E0
4.904057125E0,-1.781445465E0,4.145928497E0,1.875599670E0,4.886731543E0
4.914005125E0,-1.871109009E-1,4.495751038E0,3.354224854E0,5.612273358E0
4.923953125E0,1.272054749E0,4.677922211E0,4.865033112E0,6.868014755E0
4.933901125E0,2.767145691E0,4.897216187E0,5.838458862E0,8.107245126E0
4.943849125E0,4.148323517E0,5.592520294E0,6.912325745E0,9.811478912E0
4.953797125E0,5.320236511E0,6.644083557E0,8.237220612E0,1.184485400E1
4.963745125E0,6.401737518E0,7.633376312E0,9.563013611E0,1.380948611E1
4.973694125E0,7.748337250E0,8.526568909E0,1.091140961E1,1.586814315E1
4.983642125E0,9.229656830E0,9.192833405E0,1.197764236E1,1.769628966E1
4.993590125E0,1.055799454E1,9.739047546E0,1.248628464E1,1.903227784E1
5.003538125E0,1.169787415E1,9.901459808E0,1.295136749E1,2.006532048E1
5.013486125E0,1.264136215E1,9.554032288E0,1.361823074E1,2.089353437E1
5.023434125E0,1.326301941E1,9.116791534E0,1.415561325E1,2.143373412E1
5.033382125E0,1.352123245E1,8.633746033E0,1.433523972E1,2.151428352E1
5.043330125E0,1.346330292E1,8.423882446E0,1.387225250E1,2.108700335E1
5.053278125E0,1.301109329E1,8.033194885E0,1.336420898E1,2.030819663E1
5.063226125E0,1.211610443E1,7.414082336E0,1.329370560E1,1.945485060E1
5.073174125E0,1.105870331E1,6.766079865E0,1.310554688E1,1.843448167E1
5.083122125E0,9.918823700E0,6.121071167E0,1.255484207E1,1.713110140E1
5.093070125E0,8.931626587E0,5.522765350E0,1.176478500E1,1.576975132E1
5.103018125E0,7.988437958E0,4.799469452E0,1.089150101E1,1.433439368E1
5.112966125E0,6.868466949E0,4.055815887E0,1.009216324E1,1.286379569E1
5.122914125E0,5.508245544E0,3.650907898E0,9.069489899E0,1.122165516E1
5.132862125E0,4.429888000E0,2.972967682E0,7.851772156E0,9.492774648E0
5.142810125E0,3.546874237E0,2.293231201E0,6.886878662E0,8.078881352E0
5.152758125E0,2.653082886E0,1.813927917E0,5.935756531E0,6.749991769E0
5.162706125E0,1.701511688E0,1.478176117E0,4.879852295E0,5.375230700E0
5.172655125E0,8.541238403E-1,1.109193420E0,3.817212067E0,4.065826551E0
5.182603125E0,-7.289840698E-2,8.117619324E-1,2.850222931E0,2.964463251E0
5.192551125E0,-8.626560974E-1,6.869215393E-1,1.869462433E0,2.170466893E0
5.202499125E0,-1.490300903E0,7.692503357E-1,6.976991272E-1,1.816460001E0
5.212447125E0,-1.851499786E0,1.100960541E0,-4.810995483E-1,2.207175196E0
5.222395125E0,-2.575843506E0,1.625170441E0,-1.209784241E0,3.277152215E0
5.232343125E0,-3.286415863E0,2.242187347E0,-1.300645294E0,4.185643500E0
5.242291125E0,-3.057242432E0,2.703827362E0,-7.092251587E-1,4.142513007E0
5.252239125E0,-2.535277863E0,3.138972473E0,3.121009827E-1,4.046997535E0
5.262187125E0,-1.607656860E0,3.529210968E0,1.358874207E0,4.109310130E0
5.272135125E0,-7.933502197E-2,3.596870270E0,2.219434662E0,4.227252063E0
5.282083125E0,1.411265259E0,3.506607971E0,3.152893524E0,4.922266416E0
5.292031125E0,2.316133575E0,3.458258514E0,3.839964752E0,5.662981193E0
5.301978750E0,2.943778381E0,3.584146729E0,4.209396515E0,6.263462138E0
5.311926750E0,3.542982330E0,3.552263031E0,4.364474030E0,6.649806763E0
5.321874750E0,3.863316193E0,3.529809723E0,4.410727844E0,6.843923495E0
5.331822750E0,3.703448639E0,3.997736664E0,4.580774231E0,7.119053505E0
5.341770750E0,3.533102875E0,4.457430725E0,4.981191559E0,7.560672850E0
5.351718750E0,3.497626648E0,4.945715332E0,5.575006714E0,8.232508255E0
5.361666750E0,3.554358673E0,5.579796753E0,6.315516815E0,9.146220532E0
5.371614750E0,3.982618103E0,6.257287903E0,7.284900970E0,1.039637826E1
5.381563750E0,4.719236298E0,6.860084381E0,8.437354431E0,1.185415112E1
5.391511750E0,5.464985504E0,7.423662415E0,9.640851746E0,1.333877253E1
5.401459750E0,6.137536926E0,7.900420990E0,1.061278061E1,1.458482511E1
5.411407750E0,6.895710297E0,8.290958862E0,1.138218063E1,1.567944053E1
5.421355750E0,7.624544678E0,8.567433929E0,1.208152634E1,1.665826775E1
5.431303750E0,8.119116211E0,8.761580200E0,1.271500900E1,1.744582442E1
5.441251750E0,8.646469574E0,8.973539429E0,1.319116882E1,1.814642612E1
5.451199750E0,9.154812469E0,9.279952240E0,1.356868378E1,1.881587852E1
5.461147750E0,9.393266602E0,9.695039063E0,1.423419983E1,1.961733123E1
5.471095750E0,9.758806458E0,9.759405212E0,1.524923904E1,2.056743992E1
5.481043750E0,1.035786072E1,9.326355743E0,1.591101288E1,2.115245898E1
5.490991750E0,1.080917221E1,8.815318451E0,1.583976105E1,2.110559341E1
5.500939750E0,1.111154343E1,8.468339996E0,1.529369659E1,2.071415784E1
5.510887750E0,1.113474518E1,8.225993958E0,1.463371902E1,2.014436048E1
5.520835750E0,1.054886353E1,7.861501923E0,1.383123779E1,1.908886778E1
5.530783750E0,9.316625977E0,7.281308441E0,1.278790741E1,1.741687538E1
5.540731750E0,8.011939087E0,6.698869629E0,1.155941208E1,1.557838342E1
5.550679750E0,6.746770020E0,6.144272919E0,1.007435028E1,1.359277488E1
5.560627750E0,5.481900330E0,5.548811188E0,8.518934784E0,1.155044530E1
5.570575750E0,4.295168152E0,4.941074982E0,6.952292633E0,9.549715403E0
5.580523750E0,3.208278351E0,4.294868774E0,5.395829315E0,7.606176554E0
5.590472750E0,2.191442871E0,3.738176422E0,3.944597168E0,5.859712590E0
5.600420750E0,1.300794983E0,3.245999908E0,2.688259735E0,4.410818903E0
5.610368750E0,5.679190063E-1,2.829865265E0,1.553619232E0,3.277865484E0
5.620316750E0,-2.245330811E-2,2.456990662E0,4.285588074E-1,2.494187225E0
5.630264750E0,-4.513114929E-1,2.203867035E0,-7.212002563E-1,2.362380533E0
5.640212750E0,-8.041278076E-1,2.274669800E0,-1.756447449E0,2.984267392E0
5.650160750E0,-1.226100311E0,2.553689575E0,-2.400258636E0,3.712936027E0
5.660108750E0,-1.581161957E0,3.299289093E0,-2.444267120E0,4.399979933E0
5.670056750E0,-1.737287292E0,4.360432434E0,-1.513352966E0,4.931711199E0
5.680004750E0,-1.794318695E0,4.899611206E0,-1.871109009E-2,5.217865431E0
5.689952750E0,-1.725312195E0,5.221142578E0,1.106499023E0,5.609043776E0
5.699900750E0,-1.102158051E0,4.965474243E0,1.907333679E0,5.432182673E0
5.709848750E0,-3.890409851E-1,4.459676056E0,2.620001678E0,5.186952111E0
5.719796750E0,4.498146057E-1,3.979774017E0,3.160078583E0,5.101669438E0
5.729744750E0,1.272952881E0,3.695215759E0,3.513643341E0,5.255541654E0
5.739692750E0,2.328408051E0,3.642824707E0,4.038302307E0,5.916041026E0
5.749640750E0,3.491190033E0,3.890858917E0,4.921016693E0,7.179386900E0
5.759588750E0,4.399351501E0,4.190086670E0,6.108347626E0,8.615278907E0
5.769536750E0,5.075645142E0,4.833748169E0,7.228767700E0,1.006888164E1
5.779484750E0,5.719306641E0,5.557343445E0,8.281528473E0,1.149687994E1
5.789432750E0,6.292764130E0,6.339167633E0,9.738299103E0,1.321432541E1
5.799381750E0,7.136110382E0,7.104975128E0,1.151121231E1,1.529420648E1
5.809329750E0,8.396190033E0,7.488926697E0,1.322020844E1,1.735954899E1
5.819277750E0,9.851014709E0,7.608078918E0,1.436996750E1,1.901108418E1
5.829225750E0,1.115360596E1,7.754324799E0,1.466545303E1,1.999019739E1
5.839173750E0,1.216580109E1,7.583380280E0,1.471949066E1,2.054696517E1
5.849121750E0,1.278700928E1,7.477550354E0,1.492022324E1,2.102461479E1
5.859069750E0,1.301947586E1,7.699538727E0,1.496153732E1,2.127527314E1
5.869017750E0,1.292232788E1,7.662715302E0,1.512290176E1,2.131679904E1
5.878965750E0,1.253777756E1,7.376360779E0,1.550655396E1,2.126169749E1
5.888913750E0,1.188887695E1,6.988068237E0,1.568423447E1,2.088477205E1
5.898861750E0,1.111319000E1,6.636599121E0,1.519415359E1,1.996020399E1
5.908809750E0,1.031983978E1,6.296955414E0,1.429736847E1,1.872339408E1
5.918757750E0,9.544152832E0,5.946085052E0,1.328831680E1,1.740764614E1
5.928705750E0,8.900341644E0,5.529950409E0,1.220771393E1,1.608803009E1
5.938653750E0,8.136480103E0,5.279221802E0,1.105121887E1,1.470380664E1
5.948601750E0,7.318730621E0,4.930147705E0,9.755662994E0,1.315458607E1
5.958549750E0,6.406377869E0,4.431235199E0,8.724307709E0,1.169577136E1
5.968497750E0,5.432952118E0,4.406835938E0,7.974217529E0,1.060779510E1
5.978445750E0,4.529281311E0,4.318070526E0,7.250023499E0,9.577210606E0
5.988393750E0,3.789369965E0,4.072730713E0,6.498436432E0,8.554305129E0
5.998342750E0,3.229983215E0,3.819307709E0,5.823489990E0,7.676779182E0
6.008290750E0,2.619103546E0,3.526067505E0,5.096451874E0,6.728051511E0
6.018238750E0,2.149679718E0,3.121758270E0,4.225413208E0,5.676320495E0
6.028186750E0,1.764680328E0,2.615810394E0,3.296894073E0,4.563559051E0
6.038134750E0,1.477427673E0,2.199526062E0,2.350861359E0,3.542210688E0
6.048082750E0,1.224902802E0,1.833537140E0,1.444496155E0,2.636060405E0
6.058030750E0,9.490264893E-1,1.565893707E0,5.685177612E-1,1.917260239E0
6.067978750E0,6.194119263E-1,1.439706116E0,-2.733316040E-1,1.590954116E0
6.077926750E0,3.733236694E-1,1.453477478E0,-8.226892090E-1,1.711369299E0
6.087874750E0,1.513352966E-1,1.624721375E0,-1.052910461E0,1.941968681E0
6.097822750E0,-1.483415222E-1,1.785487061E0,-9.282197571E-1,2.017810984E0
6.107770750E0,-4.493655396E-1,1.872605896E0,-5.809419250E-1,2.011485956E0
6.117718750E0,-5.254074097E-1,2.054028625E0,-2.299218750E-1,2.132592462E0
6.127666750E0,-3.787124634E-1,2.334545288E0,2.671943665E-1,2.380108750E0
6.137614750E0,-6.137237549E-2,2.677033081E0,9.318122864E-1,2.835233116E0
6.147562750E0,2.404000854E-1,3.230881348E0,1.601519623E0,3.614035360E0
6.157510750E0,4.105961609E-1,4.037853241E0,2.344574432E0,4.687203566E0
6.167458750E0,6.056405640E-1,5.040617981E0,3.329077148E0,6.071028313E0
6.177406750E0,8.562194824E-1,6.160888367E0,4.495002594E0,7.674288605E0
6.187354750E0,1.162332916E0,7.409441986E0,5.980962524E0,9.592849476E0
6.197302750E0,1.510658569E0,8.564739532E0,7.749834137E0,1.164889616E1
6.207250750E0,1.980082397E0,9.404493256E0,9.379345551E0,1.342897400E1
6.217199750E0,2.979553986E0,1.011027557E1,1.077085190E1,1.507005855E1
6.227147750E0,5.029091949E0,1.079046112E1,1.212074478E1,1.698935758E1
6.237095750E0,7.662116547E0,1.077519287E1,1.358514954E1,1.895703298E1
6.247043750E0,9.602980499E0,1.007914032E1,1.486858063E1,2.036862769E1
6.256991750E0,1.092278595E1,9.917626190E0,1.496138763E1,2.101213178E1
6.266939750E0,1.220262451E1,9.487121429E0,1.409229492E1,2.091655550E1
6.276887750E0,1.287352936E1,8.759185181E0,1.348889969E1,2.060100721E1
6.286835750E0,1.306842407E1,7.635921021E0,1.322170532E1,2.009737518E1
6.296783750E0,1.238329880E1,5.898484039E0,1.297950897E1,1.888401060E1
6.306731750E0,1.101589233E1,5.784271545E0,1.177331726E1,1.712946819E1
6.316679750E0,1.044288391E1,6.539750519E0,1.005638763E1,1.590449916E1
6.326627750E0,1.016072067E1,7.304809570E0,8.962761841E0,1.539258222E1
6.336575750E0,8.957223358E0,7.705376587E0,8.383915558E0,1.448774374E1
6.346523750E0,6.583160248E0,8.415948944E0,7.670050049E0,1.315278918E1
6.356471750E0,4.699178009E0,8.694819031E0,7.021299133E0,1.212356356E1
6.366419750E0,3.552562408E0,8.489895172E0,6.534212036E0,1.128693699E1
6.376367750E0,2.768193512E0,8.074808350E0,6.191125488E0,1.054492579E1
6.386315750E0,2.488724670E0,6.973249054E0,6.170169067E0,9.637994562E0
6.396263750E0,2.364632721E0,6.331982574E0,5.747448120E0,8.872353190E0
6.406211750E0,2.907703400E0,5.979016571E0,4.463717651E0,8.008005587E0
6.416159750E0,3.760629730E0,5.811514893E0,2.946472778E0,7.523147157E0
6.426107750E0,4.214934998E0,5.524112549E0,1.729353790E0,7.160458157E0
6.436056750E0,4.217629395E0,5.309309235E0,1.103505249E0,6.869853426E0
6.446004750E0,4.036506042E0,5.025798798E0,1.029409332E0,6.527765173E0
6.455952750E0,3.668571167E0,4.722230072E0,1.159788208E0,6.091221548E0
6.465900750E0,3.039579163E0,4.619693298E0,1.037342834E0,5.626427624E0
6.475848750E0,2.347568207E0,4.567451935E0,8.231382751E-1,5.200985511E0
6.485796750E0,1.745071106E0,4.409230957E0,8.006849670E-1,4.809125410E0
6.495744750E0,1.024170227E0,4.298161926E0,8.259823608E-1,4.495038093E0
6.505692750E0,4.291575623E-1,4.148024139E0,8.369096375E-1,4.253316143E0
6.515640750E0,2.231858826E-1,3.894301758E0,8.890013123E-1,4.000715118E0
6.525588750E0,2.161505127E-1,3.596720581E0,1.026265869E0,3.746510592E0
6.535536750E0,3.234773254E-1,3.250191193E0,1.306333466E0,3.517795829E0
6.545484750E0,4.430786133E-1,2.949915619E0,1.661844177E0,3.414681081E0
6.555432750E0,5.047503662E-1,2.868035889E0,2.002984772E0,3.534451978E0
6.565380750E0,4.610412598E-1,3.042872314E0,2.418969727E0,3.914466184E0
6.575328750E0,4.662803650E-1,3.356320496E0,2.984493713E0,4.515474214E0
6.585276750E0,3.408412170E-1,3.885470123E0,3.731440430E0,5.397842022E0
6.595224750E0,2.543211365E-1,4.529730377E0,4.816533966E0,6.616807083E0
6.605172750E0,4.104464722E-1,5.059628448E0,6.191125488E0,8.006143963E0
6.615120750E0,6.291416931E-1,5.544320526E0,7.729326782E0,9.532984940E0
6.625068750E0,9.653425598E-1,5.995033264E0,9.248068542E0,1.106341185E1
6.635016750E0,1.607507172E0,6.373296661E0,1.054586975E1,1.242651836E1
6.644964750E0,2.784808960E0,6.625222778E0,1.150432663E1,1.356459616E1
6.654913750E0,4.132755890E0,6.819668427E0,1.228749802E1,1.464821341E1
6.664861750E0,5.390590210E0,6.983427887E0,1.321272400E1,1.588718991E1
6.674809750E0,6.703959045E0,7.269483032E0,1.414588348E1,1.725961964E1
6.684757750E0,7.927814026E0,7.793543243E0,1.511242355E1,1.876099403E1
6.694705750E0,8.989406433E0,8.140970764E0,1.615859802E1,2.020359184E1
6.704653750E0,9.799821167E0,8.136629791E0,1.728530502E1,2.147144637E1
6.714601750E0,1.026714935E1,7.785160675E0,1.820244781E1,2.230139433E1
6.724549750E0,1.061128372E1,7.235354004E0,1.844524292E1,2.247613570E1
6.734497750E0,1.100406693E1,6.599027252E0,1.786819290E1,2.199793097E1
6.744445750E0,1.122096588E1,5.843248901E0,1.674627594E1,2.098788677E1
6.754393750E0,1.118788467E1,5.343438263E0,1.532498154E1,1.971233510E1
6.764341750E0,1.120315292E1,5.209616547E0,1.385009857E1,1.856006386E1
6.774289750E0,1.117935242E1,5.307662659E0,1.243060043E1,1.754049687E1
6.784237750E0,1.111154343E1,5.752387848E0,1.071352112E1,1.647227665E1
6.794185750E0,1.109537704E1,6.722221069E0,8.529862061E0,1.552592009E1
6.804133750E0,1.090931396E1,8.087382202E0,6.087989960E0,1.488228826E1
6.814081750E0,1.023317001E1,9.283245392E0,4.099225616E0,1.441180295E1
6.824029750E0,9.125772858E0,9.849517822E0,2.909200287E0,1.373885650E1
6.833977750E0,7.843988342E0,9.678124237E0,2.227368164E0,1.265525230E1
6.843925750E0,6.865024109E0,9.128616943E0,1.692680054E0,1.154666052E1
6.853873750E0,6.112239532E0,8.611891479E0,1.081351318E0,1.061571795E1
6.863821750E0,5.163362732E0,8.176446991E0,2.064207458E-1,9.672497590E0
6.873770750E0,4.093088379E0,7.504793701E0,-5.791456604E-1,8.568005058E0
6.883718750E0,3.094664612E0,6.735094299E0,-8.515791321E-1,7.460806344E0
6.893666750E0,2.290237427E0,5.837710419E0,-6.357279968E-1,6.303031056E0
6.903614750E0,1.757345581E0,4.810247040E0,-2.393522644E-1,5.126795255E0
6.913562750E0,1.494342499E0,3.871848450E0,9.849517822E-2,4.151381845E0
6.923510750E0,1.425186310E0,3.081791382E0,3.797602844E-1,3.416549723E0
6.933458750E0,1.482666779E0,2.377356262E0,6.330335999E-1,2.872430175E0
6.943406750E0,1.537752228E0,1.668729858E0,8.425978088E-1,2.420601645E0
6.953354750E0,1.627715149E0,1.060095520E0,1.115779724E0,2.240139172E0
6.963302750E0,1.678459625E0,6.312373352E-1,1.436712341E0,2.297787988E0
6.973250750E0,1.625020752E0,4.321513367E-1,1.931283875E0,2.560723458E0
6.983198750E0,1.503922577E0,4.623884583E-1,2.536924438E0,2.985225588E0
6.993146750E0,1.063238983E0,7.830216980E-1,3.237168274E0,3.496120500E0
7.003094750E0,2.457888794E-1,1.681303711E0,3.849844208E0,4.208146239E0
7.013042750E0,-3.227288818E-1,2.851420441E0,4.381538544E0,5.237617060E0
7.022990750E0,-5.544470215E-1,3.826492767E0,5.314698029E0,6.572326341E0
7.032938750E0,-6.426136780E-1,4.453688507E0,6.867568817E0,8.210468629E0
7.042886750E0,-6.632707214E-1,5.244344330E0,8.525371399E0,1.003120297E1
7.052834750E0,-6.252497864E-1,5.968688049E0,9.793085175E0,1.148567332E1
7.062782750E0,-2.139051819E-1,6.594536591E0,1.051413574E1,1.241292547E1
7.072730750E0,6.735992432E-1,7.330556030E0,1.099433716E1,1.323125985E1
7.082678750E0,2.012115784E0,8.174051971E0,1.134880005E1,1.413007424E1
7.092626750E0,3.759881287E0,9.051527252E0,1.175026520E1,1.530148964E1
7.102575750E0,5.573210449E0,1.058269318E1,1.201970490E1,1.695663219E1
7.112523750E0,7.757917328E0,1.193333450E1,1.199455719E1,1.861341333E1
7.122471750E0,9.699380035E0,1.259615616E1,1.172781189E1,1.975557376E1
7.132419750E0,1.115450409E1,1.291454407E1,1.147304169E1,2.056305171E1
7.142367750E0,1.221864120E1,1.320568863E1,1.097068634E1,2.107228900E1
7.152315750E0,1.289209076E1,1.367256775E1,9.662556610E0,2.113078591E1
7.162263750E0,1.318353470E1,1.411325134E1,8.129444733E0,2.095417195E1
7.172211750E0,1.255963211E1,1.397913025E1,7.234455872E0,2.013697577E1
7.182159750E0,1.088835754E1,1.328637085E1,6.981032867E0,1.854235153E1
7.192107750E0,8.915460205E0,1.215517319E1,6.979236603E0,1.661154446E1
7.202055750E0,7.326215057E0,1.117456238E1,6.405479736E0,1.481804447E1
7.212003750E0,6.535708923E0,1.083836151E1,4.692591705E0,1.349836984E1
7.221951750E0,6.136938171E0,1.079824493E1,2.336341553E0,1.263814051E1
7.231899750E0,5.604645081E0,1.083761307E1,3.490740967E-1,1.220605408E1
7.241847750E0,4.724475403E0,1.079150894E1,-9.126521301E-1,1.181567886E1
7.251795750E0,3.488944702E0,1.044497955E1,-1.096619568E0,1.106674783E1
7.261743750E0,2.069596252E0,9.838440857E0,-3.152444458E-1,1.005870400E1
7.271691750E0,1.011446686E0,9.122180328E0,4.978646851E-1,9.191575903E0
7.281639750E0,4.917274475E-1,8.581354980E0,8.222401428E-1,8.634670117E0
7.291587750E0,2.951861572E-1,8.128396912E0,8.913963318E-1,8.182454316E0
7.301536250E0,3.718267822E-1,7.476203156E0,1.017883301E0,7.554333537E0
7.311484250E0,3.393443298E-1,6.878945160E0,1.149010620E0,6.982497153E0
7.321433250E0,3.568579102E-1,6.325845337E0,1.296154633E0,6.467123288E0
7.331381250E0,4.504133606E-1,5.783972168E0,1.488804016E0,5.989469395E0
7.341329250E0,4.357438660E-1,5.369334412E0,1.739981689E0,5.661021199E0
7.351277250E0,2.200424194E-1,5.073998566E0,2.074535980E0,5.486126105E0
7.361225250E0,-8.562194824E-2,4.827461243E0,2.530787201E0,5.451293152E0
7.371173250E0,-2.624043274E-1,4.613106995E0,3.044668579E0,5.533499700E0
7.381121250E0,-2.041754150E-1,4.624782715E0,3.364852753E0,5.722983209E0
7.391069250E0,3.023712158E-2,4.925058289E0,3.440445557E0,6.007809839E0
7.401017250E0,2.838098145E-1,5.323679352E0,3.675606537E0,6.475507182E0
7.410965250E0,8.253836060E-1,5.785768433E0,4.289180603E0,7.249375470E0
7.420913250E0,1.486708374E0,6.231391754E0,5.240302734E0,8.276552285E0
7.430861250E0,2.021845551E0,6.762337646E0,6.029012604E0,9.282567686E0
7.440809250E0,2.482138367E0,7.375312958E0,6.294560394E0,1.000888319E1
7.450757250E0,3.068469086E0,7.819289703E0,6.398444366E0,1.055920851E1
7.460705250E0,3.747756500E0,8.120313721E0,6.411167908E0,1.100401053E1
7.470653250E0,4.249662781E0,8.339907074E0,6.187083893E0,1.122023578E1
7.480601250E0,4.516857147E0,8.622519379E0,5.684578857E0,1.127227908E1
7.490549250E0,4.460125122E0,8.982969818E0,4.959337006E0,1.118845326E1
7.500497250E0,4.068689117E0,9.374256134E0,4.297712860E0,1.108608339E1
7.510445250E0,3.661386108E0,9.821975098E0,3.693868561E0,1.111402753E1
7.520393250E0,3.679648132E0,1.026879593E1,2.791095886E0,1.125958243E1
7.530341250E0,3.825444946E0,1.054766602E1,1.721569977E0,1.135125943E1
7.540289250E0,4.014501801E0,1.050066376E1,1.041234741E0,1.129001036E1
7.550238250E0,4.115391998E0,1.070439011E1,4.230203247E-1,1.147603438E1
7.560186250E0,3.985312500E0,1.100436630E1,-3.847000122E-2,1.170385720E1
7.570134250E0,3.939058685E0,1.109822113E1,-2.498304749E-1,1.177918125E1
7.580082250E0,4.294120331E0,1.130763565E1,-6.002517700E-1,1.211042508E1
7.590030250E0,4.733307037E0,1.128757736E1,-9.821076965E-1,1.227917480E1
7.599978250E0,4.901706848E0,1.088805817E1,-9.401948547E-1,1.197750003E1
7.609926250E0,4.713548126E0,1.011371841E1,-3.748205566E-1,1.116446714E1
7.619874250E0,4.342170410E0,9.146280212E0,4.349954224E-1,1.013400743E1
7.629822250E0,3.739224243E0,8.196804657E0,9.668394470E-1,9.061135858E0
7.639770250E0,3.037034454E0,7.347770233E0,1.169817352E0,8.036278885E0
7.649718250E0,2.166594543E0,6.615792389E0,1.162931671E0,7.057991989E0
7.659666250E0,1.281485138E0,6.135291595E0,9.512718201E-1,6.339473574E0
7.669614250E0,7.062313843E-1,5.697452087E0,4.986131287E-1,5.762667621E0
7.679562250E0,2.032772827E-1,5.079686737E0,1.978884888E-1,5.087602466E0
7.689510250E0,-3.811074829E-1,5.009033661E0,-1.243913269E-1,5.025050680E0
7.699458250E0,-5.710624695E-1,4.469854889E0,-4.165837097E-1,4.525401315E0
7.709406250E0,-6.897656250E-1,3.940106506E0,-1.187031555E-1,4.001787893E0
7.719354250E0,-5.818400574E-1,3.694018250E0,2.462379456E-1,3.747658176E0
7.729302250E0,-3.935316467E-1,3.600163422E0,3.637435913E-1,3.639828735E0
7.739250250E0,-1.523831177E-1,3.589984589E0,5.249583435E-1,3.631362172E0
7.749198250E0,1.511856079E-2,3.738326111E0,8.183482361E-1,3.826879214E0
7.759146250E0,8.217910767E-2,4.036206665E0,1.100511475E0,4.184356958E0
7.769094250E0,-2.859054565E-2,4.639901276E0,1.396446075E0,4.845571474E0
7.779042250E0,-3.147953796E-1,5.357059937E0,1.713337097E0,5.633179502E0
7.788991250E0,-7.858657837E-1,6.144422607E0,2.075134735E0,6.532817032E0
7.798939250E0,-1.300046539E0,7.066355438E0,2.362237701E0,7.563310594E0
7.808887250E0,-1.770518188E0,7.937543793E0,2.583477631E0,8.533093975E0
7.818835250E0,-2.008672943E0,8.602760468E0,3.101550293E0,9.362791724E0
7.828783250E0,-1.858834534E0,8.994944916E0,3.962110748E0,1.000313058E1
7.838731250E0,-1.420995026E0,9.152118073E0,4.866829376E0,1.046262492E1
7.848679250E0,-8.878038025E-1,9.397308197E0,5.563181305E0,1.095657717E1
7.858627250E0,-3.273692322E-1,9.769434357E0,6.120771790E0,1.153312037E1
7.868575250E0,2.468367004E-1,9.886940002E0,7.055278473E0,1.214864047E1
7.878523250E0,1.001716919E0,9.893975372E0,8.327782288E0,1.297097310E1
7.888471250E0,1.687740326E0,9.869426422E0,9.569300537E0,1.385011040E1
7.898419250E0,2.347119141E0,1.011446686E1,1.050994446E1,1.477397511E1
7.908367250E0,3.688928833E0,9.704170074E0,1.173664352E1,1.566933036E1
7.918315250E0,5.168751526E0,9.205706635E0,1.299672318E1,1.674442714E1
7.928263250E0,7.058871002E0,9.010512543E0,1.298265244E1,1.730798256E1
7.938211250E0,9.469757538E0,9.195527802E0,1.124027573E1,1.733718079E1
7.948159250E0,1.248867966E1,9.550888824E0,8.863218842E0,1.804835852E1
7.958107250E0,1.471829315E1,9.509574738E0,7.468119965E0,1.904817526E1
7.968055250E0,1.486678436E1,9.769284668E0,7.085066528E0,1.914832546E1
7.978003250E0,1.428090271E1,9.978100433E0,6.792574768E0,1.869881661E1
7.987951250E0,1.343067078E1,9.990075531E0,6.311774597E0,1.788918738E1
7.997899250E0,1.275078461E1,1.006042923E1,5.441933441E0,1.712919683E1
8.007847250E0,1.229962280E1,1.010413834E1,4.354744263E0,1.650267040E1
8.017795250E0,1.144804367E1,1.058853104E1,3.171754303E0,1.591335033E1
8.027744250E0,1.040097107E1,1.085198318E1,1.835782471E0,1.514317785E1
8.037692250E0,9.122180328E0,1.119806351E1,7.403604126E-1,1.446232809E1
8.047640250E0,7.641758881E0,1.168949158E1,-3.480262756E-1,1.397003273E1
8.057588250E0,6.213429108E0,1.188139252E1,-1.229992218E0,1.346428870E1
8.067536250E0,4.866529999E0,1.176598251E1,-1.819316711E0,1.286201275E1
8.077484250E0,3.695814514E0,1.146121628E1,-2.316133575E0,1.226307458E1
8.087432250E0,2.810705109E0,1.109343109E1,-2.825224915E0,1.178754310E1
8.097380250E0,2.307751007E0,1.066427353E1,-3.298989716E0,1.139893757E1
8.107328250E0,2.077080688E0,1.014006363E1,-3.563040619E0,1.094670786E1
8.117276250E0,2.031425629E0,9.501192169E0,-3.503464508E0,1.032829155E1
8.127224250E0,2.014810181E0,8.801996155E0,-3.130739594E0,9.556993605E0
8.137172250E0,2.111509094E0,7.924371185E0,-2.607278137E0,8.605348838E0
8.147120250E0,2.010618896E0,7.002887421E0,-1.963766327E0,7.545819953E0
8.157068250E0,1.809437256E0,6.465055847E0,-1.505868530E0,6.880308883E0
8.167016250E0,1.833686829E0,6.011049957E0,-1.134640503E0,6.386120735E0
8.176964250E0,1.953587494E0,5.686524811E0,-6.337820435E-1,6.046052282E0
8.186912250E0,2.058070221E0,5.501808929E0,3.113525391E-2,5.874225390E0
8.196860250E0,2.305355988E0,5.451363831E0,7.903564453E-1,5.971322898E0
8.206808250E0,3.004701691E0,5.513784027E0,1.561852112E0,6.470659052E0
8.216756250E0,4.028273163E0,5.639821930E0,2.325563965E0,7.310459892E0
8.226704250E0,5.445076904E0,5.836512909E0,3.289259949E0,8.633248313E0
8.236652250E0,7.554640045E0,6.172264709E0,4.472848663E0,1.073199949E1
8.246600250E0,1.033121613E1,6.536607056E0,5.401218109E0,1.336541864E1
8.256549250E0,1.295121780E1,7.153025208E0,6.122867432E0,1.601216156E1
8.266497250E0,1.485465958E1,8.057294769E0,6.715784454E0,1.818468232E1
8.276445250E0,1.586490875E1,8.882678375E0,7.150929565E0,1.953799116E1
8.286393250E0,1.583766541E1,9.596543884E0,7.694299622E0,2.005311813E1
8.296341250E0,1.461934891E1,1.032298325E1,7.904761963E0,1.956462643E1
8.306288667E0,1.279209869E1,1.042312500E1,8.135881348E0,1.839760553E1
8.316236667E0,1.054392380E1,1.099284027E1,8.375982056E0,1.738315109E1
8.326184667E0,8.664432220E0,1.145298340E1,8.081095276E0,1.647869277E1
8.336132667E0,7.218289490E0,1.163949554E1,7.879165192E0,1.580072162E1
8.346080667E0,6.134692841E0,1.159399017E1,7.931256866E0,1.532840174E1
8.356028667E0,5.440735931E0,1.145328278E1,7.844437408E0,1.491021435E1
8.365976667E0,5.004243622E0,1.131766479E1,7.713908844E0,1.458205679E1
8.375924667E0,4.654870148E0,1.114597183E1,7.583380280E0,1.426212329E1
8.385872667E0,4.289030914E0,1.096350128E1,7.277266846E0,1.384025864E1
8.395820667E0,3.814817047E0,1.075483521E1,6.949897614E0,1.336115213E1
8.405768667E0,3.296295319E0,1.045485901E1,6.728957062E0,1.286267868E1
8.415716667E0,2.900069275E0,1.011132339E1,6.310726776E0,1.226680623E1
8.425664667E0,2.591710510E0,9.802066498E0,5.768404541E0,1.166498872E1
8.435612667E0,2.321222992E0,9.513915710E0,5.155279541E0,1.106704909E1
8.445560667E0,2.126927032E0,9.117839355E0,4.515509949E0,1.039464493E1
8.455508667E0,1.921554108E0,8.598718872E0,3.864962769E0,9.621240753E0
8.465456667E0,1.715283051E0,8.044122162E0,3.161725159E0,8.811731003E0
8.475404667E0,1.527723083E0,7.382498016E0,2.493065643E0,7.940440232E0
8.485352667E0,1.412163391E0,6.632856903E0,2.030677185E0,7.079028604E0
8.495300667E0,1.459315338E0,5.890550537E0,1.784738617E0,6.325620825E0
8.505249667E0,1.610051880E0,5.225483551E0,1.617087250E0,5.702009871E0
8.515197667E0,1.719025269E0,4.728816376E0,1.459315338E0,5.238926746E0
8.525145667E0,1.841919708E0,4.343068542E0,1.312770081E0,4.896761977E0
8.535093667E0,2.147883453E0,4.013903046E0,1.191821594E0,4.705875020E0
8.545041667E0,2.547103271E0,3.694317627E0,1.094673615E0,4.618877366E0
8.554989667E0,2.903212738E0,3.414399719E0,9.708810425E-1,4.585780156E0
8.564937667E0,3.030148773E0,3.222947845E0,8.171507263E-1,4.498547511E0
8.574885667E0,2.849474487E0,3.177741852E0,7.503895569E-1,4.333662725E0
8.584833667E0,2.310295715E0,3.247047729E0,7.967930603E-1,4.063946903E0
8.594781667E0,1.491049347E0,3.403771820E0,9.463320923E-1,3.834636252E0
8.604729667E0,5.285508728E-1,3.936513977E0,1.076112213E0,4.115036550E0
8.614677667E0,-5.328918457E-1,4.781057739E0,1.222956848E0,4.963679107E0
8.624625667E0,-1.820214844E0,5.730084229E0,1.561403046E0,6.211684700E0
8.634573667E0,-3.089575195E0,6.663842468E0,1.985920258E0,7.608952004E0
8.644521667E0,-3.824546814E0,7.718100128E0,2.501448212E0,8.969585892E0
8.654469667E0,-3.995341644E0,8.776698761E0,3.010539551E0,1.010230391E1
8.664417667E0,-4.226161652E0,9.796677704E0,3.419189758E0,1.120384733E1
8.674365667E0,-3.950285339E0,1.072115524E1,3.674409027E0,1.200205006E1
8.684313667E0,-3.349285126E0,1.158695480E1,3.857328644E0,1.266310455E1
8.694261667E0,-2.877166901E0,1.248403931E1,4.074826355E0,1.344371737E1
8.704209667E0,-2.129920807E0,1.314147217E1,4.424798584E0,1.402903047E1
8.714157667E0,-1.229094086E0,1.374816055E1,4.626878357E0,1.455783618E1
8.724105667E0,-5.408253479E-1,1.417971313E1,4.847070465E0,1.499502747E1
8.734053667E0,2.311193848E-1,1.429811691E1,5.025050354E0,1.515719943E1
8.744002667E0,1.026714935E0,1.448283279E1,4.437522125E0,1.518216690E1
8.753950667E0,1.659299469E0,1.477951584E1,3.464395752E0,1.527054030E1
8.763898667E0,1.750459900E0,1.490959534E1,2.654879150E0,1.524495085E1
8.773846667E0,1.669328613E0,1.508607834E1,1.736838226E0,1.527720605E1
8.783794667E0,1.608554993E0,1.516182083E1,7.065307617E-1,1.526327114E1
8.793742667E0,1.444047089E0,1.503159164E1,-2.878514099E-1,1.510353859E1
8.803690667E0,8.855584717E-1,1.479433502E1,-1.164877625E0,1.486652288E1
8.813638667E0,1.029858398E-1,1.456620941E1,-1.926942902E0,1.469347378E1
8.823586667E0,-6.119274902E-1,1.415830765E1,-2.536924438E0,1.439680924E1
8.833534667E0,-1.224902802E0,1.350820953E1,-2.987786865E0,1.388880780E1
8.843482667E0,-1.782193909E0,1.267938309E1,-3.348536682E0,1.323463896E1
8.853430667E0,-2.121538239E0,1.179382462E1,-3.690126343E0,1.253843116E1
8.863378667E0,-2.288441162E0,1.067265610E1,-3.924838257E0,1.159943561E1
8.873326667E0,-2.286345520E0,9.444460144E0,-3.915258179E0,1.047637580E1
8.883274667E0,-2.185006256E0,8.315358124E0,-3.766766968E0,9.386584387E0
8.893222667E0,-1.935325470E0,7.318880310E0,-3.575015717E0,8.372110310E0
8.903170667E0,-1.621128845E0,6.452332306E0,-3.243754578E0,7.401526510E0
8.913118667E0,-1.244961090E0,5.781577148E0,-2.974763947E0,6.620104454E0
8.923066667E0,-8.499325562E-1,5.294190674E0,-2.809507599E0,6.053443085E0
8.933014667E0,-5.548960876E-1,4.736151123E0,-2.551593933E0,5.408296287E0
8.942962667E0,-3.362008667E-1,4.195924530E0,-2.271676025E0,4.783233807E0
8.952910667E0,-3.718267822E-1,3.817661133E0,-2.132764893E0,4.388790012E0
8.962858667E0,-5.942642212E-1,3.556903381E0,-2.140848083E0,4.193798057E0
8.972806667E0,-8.232879639E-1,3.235970764E0,-2.281106415E0,4.043854143E0
8.982755667E0,-1.097966766E0,3.049608307E0,-2.467768250E0,4.073760177E0
8.992703667E0,-1.523831177E0,3.089724884E0,-2.694247284E0,4.373491710E0
9.002651667E0,-2.053429871E0,3.318598938E0,-2.902913361E0,4.863802949E0
9.012599667E0,-2.372865601E0,3.656147003E0,-2.988834686E0,5.284982010E0
9.022547667E0,-2.552791443E0,3.894152069E0,-2.952310638E0,5.513374882E0
9.032495667E0,-2.691852264E0,4.209546204E0,-2.748284912E0,5.702579926E0
9.042443667E0,-2.812501373E0,4.520299988E0,-2.441722412E0,5.857071307E0
9.052391667E0,-2.911445618E0,4.862039337E0,-2.258204041E0,6.100444868E0
9.062339667E0,-3.116369476E0,5.323978729E0,-2.266287231E0,6.572105145E0
9.072287667E0,-3.510350189E0,5.684429169E0,-2.377356262E0,7.091340933E0
9.082235667E0,-4.015848999E0,6.016588440E0,-2.583627319E0,7.681244024E0
9.092183667E0,-4.707710266E0,6.234535217E0,-2.725831604E0,8.274184145E0
9.102131667E0,-5.246739349E0,6.457721100E0,-2.991080017E0,8.841775572E0
9.112079667E0,-5.109624481E0,7.128925323E0,-3.582051086E0,9.474224432E0
9.122027667E0,-4.623285828E0,7.573949890E0,-3.888314209E0,9.688058431E0
9.131975667E0,-4.265679474E0,7.684120789E0,-3.290756836E0,9.384605171E0
9.141923667E0,-3.822151794E0,7.777825928E0,-2.260748749E0,8.956249517E0
9.151871667E0,-3.348686371E0,7.993527374E0,-1.642684021E0,8.820917814E0
9.161819667E0,-2.573747864E0,8.064928894E0,-2.010469208E0,8.701105824E0
9.171767667E0,-1.084794159E0,9.646240540E0,-3.311862946E0,1.025646972E1
9.181715667E0,3.769161987E-1,1.139116196E1,-4.356839905E0,1.220174949E1
9.191663667E0,9.327104187E-1,1.205338486E1,-4.142934723E0,1.277959089E1
9.201611667E0,1.249751129E0,1.191686874E1,-2.763104095E0,1.229668178E1
9.211559667E0,1.685345306E0,1.161539566E1,-1.490300903E0,1.183126375E1
9.221507667E0,2.534080353E0,1.138382721E1,-1.040486298E0,1.170878717E1
9.231455667E0,3.472628632E0,1.100825821E1,-7.617658997E-1,1.156811072E1
9.241403667E0,3.641327820E0,1.030008087E1,-2.999761963E-1,1.092890296E1
9.251352667E0,3.024460602E0,9.054521027E0,4.480183411E-1,9.556800374E0
9.261300667E0,1.905537415E0,7.824229431E0,1.000369720E0,8.114824620E0
9.271248667E0,1.051263885E0,6.641838226E0,8.170010376E-1,6.773969403E0
9.281196667E0,3.100053406E-1,5.552703094E0,4.101470947E-1,5.576453676E0
9.291144667E0,-5.313949585E-1,4.703968048E0,1.748364258E-1,4.737115554E0
9.301093250E0,-1.223854980E0,4.215084686E0,-1.122665405E-2,4.389178279E0
9.311041250E0,-1.567689972E0,3.882176971E0,-1.709445190E-1,4.190247238E0
9.320989250E0,-1.636846161E0,3.652704163E0,-1.586700439E-1,4.005831903E0
9.330937250E0,-1.702110443E0,3.596570892E0,1.508862305E-1,3.981867501E0
9.340885250E0,-1.668280792E0,3.686384125E0,5.938151550E-1,4.089646092E0
9.350833250E0,-1.745669861E0,3.829785919E0,1.015039215E0,4.329541322E0
9.360781250E0,-2.237996063E0,4.089795227E0,1.530118103E0,4.906761945E0
9.370729250E0,-2.826272736E0,4.473297729E0,2.097887421E0,5.692041969E0
9.380677250E0,-3.384012909E0,5.205874329E0,2.562820587E0,6.717195862E0
9.390625250E0,-3.688479767E0,6.215524750E0,2.980003052E0,7.817803342E0
9.400573250E0,-3.541186066E0,7.591164093E0,3.672313385E0,9.146127959E0
9.410521250E0,-2.520458679E0,9.861193542E0,4.694837036E0,1.120880657E1
9.420469250E0,-1.513352966E-1,1.289927582E1,5.595514069E0,1.406143651E1
9.430417250E0,2.640209656E0,1.574860062E1,6.277046814E0,1.715781003E1
9.440365250E0,4.665198669E0,1.826801147E1,7.254514160E0,2.020178946E1
9.450313250E0,5.812712402E0,2.060465240E1,8.813522186E0,2.315205173E1
9.460261250E0,6.049969025E0,2.192385910E1,1.015712814E1,2.490833144E1
9.470209250E0,6.102958832E0,2.231649261E1,1.054946228E1,2.542760515E1
9.480157250E0,6.350244598E0,2.265314255E1,9.797875214E0,2.548507078E1
9.490106250E0,7.064559174E0,2.238534943E1,8.848998413E0,2.508618421E1
9.500054250E0,7.007976837E0,2.113574799E1,8.289461975E0,2.376019280E1
9.510002250E0,6.247408447E0,1.944636108E1,7.757019196E0,2.184862509E1
9.519950250E0,5.372028809E0,1.761926056E1,7.036417694E0,1.971822026E1
9.529898250E0,4.665647736E0,1.537378006E1,6.274951172E0,1.724808379E1
9.539846250E0,3.803740082E0,1.275258087E1,5.652096405E0,1.445831772E1
9.549794250E0,2.549049225E0,1.036729111E1,4.790188751E0,1.170146508E1
9.559742250E0,1.497036896E0,8.249644775E0,3.830534363E0,9.217958119E0
9.569690250E0,1.449286194E0,6.515051880E0,2.974763947E0,7.307226013E0
9.579638250E0,1.654210052E0,5.301525421E0,2.177671509E0,5.965302665E0
9.589586250E0,1.158890076E0,4.253404999E0,1.450932770E0,4.641086747E0
9.599534250E0,8.454418945E-1,3.147504730E0,1.231938171E0,3.484139733E0
9.609482250E0,9.633966064E-1,2.316133575E0,1.084045715E0,2.732720782E0
9.619430250E0,6.917115784E-1,1.746717682E0,5.514532471E-1,1.957955120E0
9.629378250E0,1.342707825E-1,1.195863190E0,-1.288819885E-1,1.210259467E0
9.639326250E0,-4.806504822E-1,1.241817627E0,-1.234931946E0,1.816092733E0
9.649274250E0,-5.766009521E-1,1.271905060E0,-2.242337036E0,2.641644662E0
9.659222250E0,-4.932243347E-1,1.446591797E0,-2.658771057E0,3.066750985E0
9.669170250E0,-2.770738220E-1,1.750010834E0,-2.197879486E0,2.823115665E0
9.679118250E0,-5.239105225E-2,2.183509369E0,-4.733157349E-1,2.234834618E0
9.689066250E0,5.995033264E-1,2.871927795E0,1.074914703E0,3.124550387E0
9.699014250E0,1.600471802E0,3.998485107E0,2.258802795E0,4.863289341E0
9.708962250E0,2.567910004E0,5.003495178E0,3.703897705E0,6.734091178E0
9.718910250E0,4.070635071E0,5.639971619E0,5.184768219E0,8.675319661E0
9.728858250E0,5.561834106E0,6.171366577E0,6.567742310E0,1.059032592E1
9.738807250E0,6.247408447E0,7.072941742E0,7.689210205E0,1.217294421E1
9.748755250E0,6.683302002E0,7.727979584E0,8.805289307E0,1.348782095E1
9.758703250E0,7.560328217E0,8.437354431E0,1.032897079E1,1.533085615E1
9.768651250E0,8.659492493E0,9.045689392E0,1.210547653E1,1.741705684E1
9.778599250E0,9.811347198E0,9.331295471E0,1.378019394E1,1.931914475E1
9.788547250E0,1.116019226E1,9.408534851E0,1.499357071E1,2.092552465E1
9.798495250E0,1.266621048E1,9.212592316E0,1.599873047E1,2.238892855E1
9.808443250E0,1.450932770E1,8.821006622E0,1.710223572E1,2.410014968E1
9.818391250E0,1.628268997E1,8.367599487E0,1.782343597E1,2.555029518E1
9.828339250E0,1.739308090E1,8.292306061E0,1.801069656E1,2.637549609E1
9.838287250E0,1.825064758E1,8.320447540E0,1.780412613E1,2.681982274E1
9.848235250E0,1.872710678E1,8.168214111E0,1.714624420E1,2.667241909E1
9.858183250E0,1.874581787E1,8.028704224E0,1.643911469E1,2.619370670E1
9.868131250E0,1.823433151E1,7.865992584E0,1.595352448E1,2.547311579E1
9.878079250E0,1.715866837E1,7.633675690E0,1.514355881E1,2.412509643E1
9.888027250E0,1.585308334E1,7.079078979E0,1.381073044E1,2.218490221E1
9.897975250E0,1.460961914E1,6.277196503E0,1.218406311E1,2.003236285E1
9.907923250E0,1.326556412E1,5.278173981E0,1.031130753E1,1.761128544E1
9.917871250E0,1.175969559E1,4.184548187E0,8.403973846E0,1.504751342E1
9.927819250E0,1.011805939E1,3.608545990E0,6.556066589E0,1.258486150E1
9.937767250E0,8.802894287E0,3.648512878E0,4.853806458E0,1.069401848E1
9.947715250E0,8.145760803E0,4.309089203E0,3.266058197E0,9.776952744E0
9.957663250E0,7.817643127E0,5.388344879E0,2.070943451E0,9.717953045E0
9.967612250E0,7.145540771E0,6.693480835E0,1.570384369E0,9.916024691E0
9.977560250E0,6.404282227E0,7.612270203E0,1.384470978E0,1.004381642E1
9.987508250E0,6.098168793E0,7.666457520E0,2.368674316E0,1.007833575E1
9.997456250E0,5.244793396E0,7.501799927E0,3.014132080E0,9.636900544E0
1.000740425E1,4.877008209E0,7.110962677E0,2.517315216E0,8.982642994E0
1.001735225E1,4.934488678E0,6.684349823E0,1.778152313E0,8.496560287E0
1.002730025E1,5.088817749E0,6.044131165E0,8.586145020E-1,7.947628985E0
1.003724825E1,5.112019501E0,5.025050354E0,1.564247131E-1,7.169961166E0
1.004719625E1,5.022805023E0,3.798051910E0,-1.204994202E-1,6.298276647E0
1.005714425E1,4.977599030E0,2.788102112E0,-2.430944824E-1,5.710437848E0
1.006709225E1,4.918022919E0,1.918410645E0,-3.582051086E-1,5.291083039E0
1.007704025E1,4.680167542E0,1.280886383E0,-4.758604431E-1,4.875559589E0
1.008698825E1,4.191134491E0,9.972262573E-1,-6.044430542E-1,4.350335612E0
1.009693625E1,3.393293610E0,9.373507690E-1,-4.626878357E-1,3.550654590E0
1.010688425E1,2.571352844E0,1.108744354E0,-1.137634277E-2,2.800231939E0
1.011683225E1,1.726958771E0,1.303938446E0,2.899470520E-1,2.183279955E0
1.012678025E1,9.765692139E-1,1.645528107E0,2.981799316E-1,1.936584997E0
1.013672825E1,6.840774536E-2,2.316432953E0,1.966909790E-1,2.325774836E0
1.014667625E1,-1.055754547E0,3.162623291E0,1.483415222E-1,3.337485423E0
1.015662425E1,-2.199226685E0,4.232149200E0,2.941383362E-1,4.778514646E0
1.016657225E1,-3.438499603E0,4.688999176E0,8.333171082E-1,5.874045471E0
1.017652025E1,-4.834945679E0,5.065166931E0,1.672023010E0,7.199185836E0
1.018646825E1,-5.810167694E0,5.496120758E0,2.212249603E0,8.298158852E0
1.019641625E1,-6.305936737E0,5.821843414E0,2.581381989E0,8.962267115E0
1.020636425E1,-6.430328064E0,5.868695984E0,3.114423523E0,9.246098931E0
1.021631225E1,-5.918991394E0,5.820346527E0,3.392545166E0,8.967734135E0
1.022626025E1,-4.942721558E0,5.783373413E0,3.583547974E0,8.409501799E0
1.023620925E1,-4.423301697E0,5.730233917E0,4.577481079E0,8.564724845E0
1.024615725E1,-4.199067993E0,5.334307251E0,5.919290771E0,9.006942272E0
1.025610525E1,-3.912713470E0,4.386627960E0,6.579418030E0,8.822730483E0
1.026605325E1,-2.981350250E0,3.275039520E0,6.803502045E0,8.118003033E0
1.027600125E1,-1.902693329E0,3.099155273E0,6.841223602E0,7.747731648E0
1.028594925E1,-8.023315430E-2,2.966531067E0,6.733298035E0,7.358263814E0
1.029589725E1,1.353485413E0,2.892435150E0,7.470664673E0,8.124588267E0
1.030584550E1,2.451601868E0,2.336640930E0,9.011560364E0,9.626965396E0
1.031579350E1,3.394191742E0,2.256108398E0,1.051862640E1,1.128060566E1
1.032574150E1,4.625531158E0,2.718197479E0,1.110854965E1,1.233628840E1
1.033568950E1,5.934259644E0,3.041824493E0,1.096724350E1,1.283544170E1
1.034563750E1,6.736441498E0,3.225791931E0,1.082743423E1,1.315365766E1
1.035558550E1,6.835685120E0,3.273392944E0,1.065619034E1,1.307654713E1
1.036553350E1,6.299051056E0,3.415447540E0,9.865085449E0,1.219275346E1
1.037548150E1,5.627996521E0,3.594175873E0,8.524024200E0,1.082827011E1
1.038542950E1,4.806055756E0,3.575464783E0,7.328460388E0,9.465117643E0
1.039537750E1,3.979474640E0,3.443439331E0,6.353238373E0,8.249674579E0
1.040532550E1,3.242706757E0,3.543730774E0,5.302273865E0,7.154528849E0
1.041527350E1,2.584076385E0,3.703897705E0,4.204905853E0,6.170700301E0
1.042522150E1,1.936373291E0,3.895648956E0,3.447031860E0,5.550464031E0
1.043516950E1,1.459764404E0,4.113595734E0,3.041076050E0,5.319842621E0
1.044511750E1,1.173709259E0,4.365821228E0,2.781515808E0,5.307995724E0
1.045506550E1,9.394464111E-1,4.639302521E0,2.527494049E0,5.365996050E0
1.046501350E1,7.538323975E-1,5.079836426E0,2.473606110E0,5.700151628E0
1.047496150E1,5.195695496E-1,5.547014923E0,2.657423859E0,6.172619269E0
1.048491050E1,1.742376709E-1,6.129753113E0,2.918480988E0,6.791300558E0
1.049485850E1,-3.727249146E-1,7.036866760E0,3.138074341E0,7.713878936E0
1.050480650E1,-1.010698242E0,8.186326447E0,3.444636841E0,8.938846379E0
1.051475450E1,-1.817520447E0,9.691446533E0,4.151466980E0,1.069870060E1
1.052470250E1,-2.696642303E0,1.112471603E1,5.456902313E0,1.268104765E1
1.053465050E1,-2.863694916E0,1.202688995E1,7.557484131E0,1.449007926E1
1.054459850E1,-1.976340179E0,1.246757355E1,9.663903809E0,1.589771517E1
1.055454650E1,-2.727328491E-1,1.283550842E1,1.113459549E1,1.699423068E1
1.056449450E1,2.303110657E0,1.369801483E1,1.358050919E1,1.942601757E1
1.057444250E1,4.676724701E0,1.421339310E1,1.765413803E1,2.314218846E1
1.058439050E1,6.842870178E0,1.369472168E1,2.158421539E1,2.646221133E1
1.059433850E1,1.029169830E1,1.263926651E1,2.323183914E1,2.837936683E1
1.060428650E1,1.422536819E1,1.185070633E1,2.307316910E1,2.958329720E1
1.061423450E1,1.688249268E1,1.080842377E1,2.276989975E1,3.033659371E1
1.062418250E1,1.670466248E1,9.767488403E0,2.196143097E1,2.927036092E1
1.063413050E1,1.467638031E1,9.847422180E0,1.932705917E1,2.618975141E1
1.064407850E1,1.274644363E1,9.256151733E0,1.627819931E1,2.265232754E1
1.065402650E1,1.124356888E1,8.257278900E0,1.407552979E1,1.981719038E1
1.066397450E1,9.247469788E0,7.058421936E0,1.241847565E1,1.701633201E1
1.067392250E1,7.261699219E0,6.061345367E0,1.039767792E1,1.405645365E1
1.068387050E1,5.892197113E0,5.413193207E0,8.016130371E0,1.132603168E1
1.069381850E1,5.165608063E0,4.991071014E0,5.819448395E0,9.244472735E0
1.070376650E1,4.653073883E0,4.579127655E0,3.819008331E0,7.563354499E0
1.071371450E1,4.214934998E0,4.326752472E0,1.949396210E0,6.347173353E0
1.072366250E1,3.722608795E0,4.271966400E0,4.261637878E-1,5.682352395E0
1.073361150E1,3.059188385E0,4.326752472E0,-5.712121582E-1,5.329700166E0
1.074355950E1,2.355501709E0,4.404291229E0,-1.087638245E0,5.111665725E0
1.075350750E1,1.691931610E0,4.567451935E0,-1.410666504E0,5.070920009E0
1.076345550E1,1.498234406E0,4.547693024E0,-1.800455933E0,5.115453033E0
1.077340350E1,1.561403046E0,4.064946899E0,-1.592987366E0,4.636742554E0
1.078335150E1,1.264720001E0,3.910617828E0,-1.266216888E0,4.300668982E0
1.079329950E1,1.327589264E0,3.880380707E0,-1.404678955E0,4.335086003E0
1.080324750E1,1.721270599E0,3.721710663E0,-1.444346466E0,4.347417561E0
1.081319550E1,2.210004272E0,3.541934509E0,-1.272054749E0,4.364349005E0
1.082314350E1,2.373464355E0,3.294798431E0,-8.921447754E-1,4.157517535E0
1.083309150E1,2.252515869E0,3.069217529E0,-5.110372925E-1,3.841234580E0
1.084303950E1,1.973496094E0,2.944227448E0,-3.727249146E-1,3.563998591E0
1.085298750E1,1.660496979E0,2.941383362E0,-4.273612976E-1,3.404647409E0
1.086293550E1,1.409918060E0,3.248095551E0,-4.700225830E-1,3.571962328E0
1.087288350E1,1.184786224E0,3.823049927E0,-6.265969849E-1,4.051179201E0
1.088283150E1,8.261320496E-1,4.402644653E0,-6.117778015E-1,4.521066930E0
1.089277950E1,1.770817566E-1,5.646557922E0,-6.415658569E-1,5.685646935E0
1.090272750E1,-5.469625854E-1,7.365583191E0,-8.178991699E-1,7.431012237E0
1.091267550E1,-1.636397095E0,9.290131073E0,-5.361849976E-1,9.448376853E0
1.092262350E1,-2.927612000E0,1.101828735E1,2.736309814E-1,1.140387838E1
1.093257150E1,-4.285588074E0,1.236488708E1,1.672921143E0,1.319300432E1
1.094251950E1,-5.390290833E0,1.374576553E1,3.963757324E0,1.528766423E1
1.095246750E1,-6.209387512E0,1.532647842E1,7.253616028E0,1.805747434E1
1.096241550E1,-6.502478027E0,1.609483063E1,1.045440994E1,2.026377262E1
1.097236350E1,-4.852159882E0,1.510134659E1,1.239512421E1,2.013040557E1
1.098231150E1,-1.535955963E0,1.312814987E1,1.383303406E1,1.913270266E1
1.099225950E1,9.616003418E-1,1.189202042E1,1.529848663E1,1.940073499E1
1.100220850E1,2.921923828E0,1.121857086E1,1.501003647E1,1.896563117E1
1.101215650E1,4.453089752E0,1.052311707E1,1.412163391E1,1.816553180E1
1.102210450E1,5.007387085E0,9.600136414E0,1.373498795E1,1.748960944E1
1.103205250E1,4.731959839E0,9.052874451E0,1.365565292E1,1.705352856E1
1.104200050E1,4.007017365E0,9.097182312E0,1.207494003E1,1.564030342E1
1.105194850E1,3.355721741E0,8.928483124E0,9.830956421E0,1.369767803E1
1.106189650E1,3.145558777E0,8.395291901E0,8.244255981E0,1.217962326E1
1.107184450E1,3.060236206E0,7.832612000E0,6.543193359E0,1.065496296E1
1.108179250E1,3.203638000E0,7.284601593E0,4.631818085E0,9.207738896E0
1.109174050E1,3.488495636E0,6.631060638E0,2.537672882E0,7.910774339E0
1.110168850E1,3.847748566E0,5.717510376E0,-9.430389404E-3,6.891674895E0
1.111163650E1,4.361031189E0,4.795427856E0,-2.961142273E0,7.126225152E0
1.112158450E1,5.090314636E0,4.502636719E0,-6.018384705E0,9.077774781E0
1.113153250E1,5.076992340E0,5.256469116E0,-8.479566650E0,1.119416676E1
1.114148050E1,3.428919525E0,6.728208618E0,-9.853260040E0,1.241422626E1
1.115142850E1,9.247769165E-1,7.004084930E0,-9.442663879E0,1.179306233E1
1.116137650E1,-1.793121185E0,5.986501007E0,-7.005132751E0,9.387510999E0
1.117132450E1,-3.758983154E0,5.693859558E0,-5.874982910E0,9.003633445E0
1.118127250E1,-3.760929108E0,6.048472137E0,-6.709497528E0,9.784986460E0
1.119122050E1,-3.199895782E0,6.187832336E0,-6.633904724E0,9.619630655E0
1.120116850E1,-2.799478455E0,5.061574402E0,-5.169499969E0,7.757599176E0
1.121111650E1,-2.363285522E0,4.418361969E0,-3.379821625E0,6.044024749E0
1.122106450E1,-1.851499786E0,4.811294861E0,-1.675914917E0,5.420821018E0
1.123101250E1,-1.569785614E0,4.984335022E0,7.246430969E-1,5.275692381E0
1.124096050E1,-1.582359467E0,5.667065277E0,3.489992523E0,6.841018795E0
1.125090850E1,-1.616338806E0,6.318211212E0,6.185437317E0,8.988435841E0
1.126085750E1,-1.600771179E0,6.508016510E0,8.755442963E0,1.102608402E1
1.127080550E1,-1.263073425E0,6.492299194E0,1.052311707E1,1.242905049E1
1.128075350E1,-1.442999268E-1,6.144871674E0,1.172242310E1,1.323614270E1
1.129070150E1,1.467697906E0,5.301076355E0,1.260633499E1,1.375409865E1
1.130064842E1,3.752546539E0,3.938310242E0,1.273312134E1,1.384645341E1
1.131059642E1,5.667214966E0,2.628384247E0,1.285751266E1,1.429480189E1
1.132054442E1,7.060218201E0,1.690734100E0,1.280572037E1,1.472045302E1
1.133049242E1,7.959548035E0,8.574169922E-1,1.242161911E1,1.477789532E1
1.134044042E1,8.548722839E0,7.664062500E-2,1.177511353E1,1.455128292E1
1.135038842E1,9.258995819E0,-7.723937988E-1,1.143801453E1,1.473613830E1
1.136033642E1,1.000070343E1,-1.841171265E0,1.162542480E1,1.544520905E1
1.137028442E1,1.075543396E1,-2.401605835E0,1.168754562E1,1.606380381E1
1.138023242E1,1.170910080E1,-2.635868683E0,1.176029434E1,1.680343323E1
1.139018042E1,1.283326309E1,-3.560645599E0,1.201401672E1,1.793620463E1
1.140012842E1,1.431128952E1,-4.642296295E0,1.155058044E1,1.896786312E1
1.141007642E1,1.582838470E1,-5.173541565E0,1.052581146E1,1.970015232E1
1.142002442E1,1.691287949E1,-5.430407410E0,9.691446533E0,2.023509212E1
1.142997242E1,1.748663635E1,-5.395679626E0,9.073232117E0,2.042594797E1
1.143992042E1,1.694311661E1,-4.866380310E0,8.201295319E0,1.944253334E1
1.144986842E1,1.650961807E1,-4.474046173E0,6.713090057E0,1.837525935E1
1.145981642E1,1.656215881E1,-3.781137085E0,4.850962372E0,1.766731270E1
1.146976442E1,1.629810791E1,-2.690056000E0,3.386108551E0,1.686210111E1
1.147971242E1,1.572929077E1,-1.409019928E0,2.250270538E0,1.595179121E1
1.148966042E1,1.524145523E1,4.433779907E-1,1.703307953E0,1.534274420E1
1.149960842E1,1.438553513E1,2.456990662E0,1.577120361E0,1.467881918E1
1.150955742E1,1.301109329E1,4.879552917E0,1.148112488E0,1.394334062E1
1.151950542E1,1.172287216E1,5.936055908E0,1.292711792E0,1.320354480E1
1.152945342E1,9.592951355E0,5.670807495E0,2.323618011E0,1.138340784E1
1.153940142E1,7.987839203E0,5.641767883E0,1.702110443E0,9.926343735E0
1.154934942E1,6.740632782E0,5.844446411E0,-1.440005493E-1,8.922691316E0
1.155929742E1,5.516179047E0,5.960604858E0,-1.369502106E0,8.236053519E0
1.156924542E1,4.658612366E0,5.743556213E0,-2.391277313E0,7.772342912E0
1.157919342E1,4.309388580E0,5.044509888E0,-2.984793091E0,7.275087610E0
1.158914142E1,4.135450287E0,4.226461029E0,-2.990930328E0,6.626506329E0
1.159908942E1,4.227059784E0,3.376378784E0,-2.561473389E0,5.985742563E0
1.160903742E1,4.346212006E0,2.459535370E0,-1.622925110E0,5.250976952E0
1.161898542E1,4.295168152E0,1.488055573E0,-5.933660889E-1,4.584197002E0
1.162893342E1,4.340374146E0,4.267625427E-1,2.764750671E-1,4.370058633E0
1.163888142E1,4.748126221E0,-7.548802185E-1,1.131946106E0,4.939215397E0
1.164882942E1,5.499264221E0,-2.127226410E0,1.987866211E0,6.222428083E0
1.165877742E1,6.678661652E0,-3.357518005E0,2.804717560E0,7.983977029E0
1.166872542E1,8.273744659E0,-4.516408081E0,3.551514587E0,1.007303571E1
1.167867342E1,1.014111145E1,-5.900879059E0,4.347110138E0,1.251238913E1
1.168862142E1,1.256786499E1,-7.844287720E0,5.085225220E0,1.566344776E1
1.169856942E1,1.532348465E1,-9.970466309E0,5.780828705E0,1.917387182E1
1.170851742E1,1.817715042E1,-1.194575867E1,6.156846771E0,2.260567871E1
1.171846542E1,2.058339661E1,-1.359847183E1,6.355633392E0,2.547525717E1
1.172841342E1,2.207130249E1,-1.474763214E1,6.263574829E0,2.727393292E1
1.173836142E1,2.296224976E1,-1.503308853E1,6.057603149E0,2.810610646E1
1.174830942E1,2.347298767E1,-1.428614182E1,5.714666290E0,2.806657102E1
1.175825842E1,2.324740677E1,-1.301423676E1,5.247338104E0,2.715413112E1
1.176820642E1,2.213641708E1,-1.154743698E1,4.809947662E0,2.542636149E1
1.177815442E1,2.063279388E1,-1.011790970E1,4.265529785E0,2.337261270E1
1.178810242E1,1.926987808E1,-8.483009491E0,3.750600586E0,2.138589853E1
1.179805042E1,1.807566147E1,-6.597380676E0,3.348087616E0,1.953112030E1
1.180799842E1,1.697664688E1,-4.639751587E0,3.279530182E0,1.790221082E1
1.181794642E1,1.560684540E1,-2.864742737E0,3.134930878E0,1.617430573E1
1.182789442E1,1.395308441E1,-1.382075958E0,2.750081177E0,1.428851444E1
1.183784242E1,1.227537323E1,-7.140151978E-2,2.181264038E0,1.246787066E1
1.184779042E1,1.068717590E1,8.973838806E-1,1.475332031E0,1.082578548E1
1.185773842E1,9.236991577E0,1.683549042E0,6.048921204E-1,9.408626109E0
1.186768642E1,7.953111420E0,2.663860474E0,-6.005511475E-1,8.408852214E0
1.187763442E1,6.708150330E0,3.912414093E0,-1.700164490E0,7.949643022E0
1.188758242E1,5.076543274E0,5.182073822E0,-2.247875519E0,7.594611580E0
1.189753042E1,3.228336639E0,6.011798401E0,-2.480791168E0,7.260730149E0
1.190747842E1,1.937870178E0,6.507417755E0,-2.809806976E0,7.348254345E0
1.191742642E1,1.332079926E0,6.837930450E0,-3.270698547E0,7.696050855E0
1.192737442E1,1.049916687E0,6.787036285E0,-3.308270416E0,7.623046618E0
1.193732242E1,8.849597168E-1,6.420448608E0,-3.187920685E0,7.222752407E0
1.194727042E1,1.069076843E0,6.108647003E0,-2.917582855E0,6.853523417E0
1.195721842E1,1.587149506E0,5.710325317E0,-2.313888245E0,6.362463170E0
1.196716642E1,2.103126526E0,5.698948975E0,-1.963916016E0,6.384209169E0
1.197711442E1,2.735711060E0,5.245990906E0,-1.632056122E0,6.137437802E0
1.198706242E1,3.229833527E0,4.688400421E0,-7.017407227E-1,5.736319653E0
1.199701042E1,3.817810822E0,4.266577606E0,-1.297801208E-1,5.726797257E0
1.200695942E1,4.578379211E0,3.610042877E0,4.406835938E-1,5.847064888E0
1.201690742E1,5.582491150E0,2.688409424E0,1.036444702E0,6.282194703E0
1.202685542E1,6.801705780E0,1.698368225E0,1.421743469E0,7.153251753E0
1.203680342E1,8.293802948E0,6.523434448E-1,1.714684296E0,8.494284051E0
1.204675142E1,9.878108368E0,-4.691244507E-1,2.146236877E0,1.011945826E1
1.205669942E1,1.154324570E1,-1.559906158E0,2.538571014E0,1.192158426E1
1.206664742E1,1.342034225E1,-2.744842072E0,2.993624725E0,1.402146687E1
1.207659542E1,1.549996765E1,-4.123774567E0,3.568728790E0,1.643138275E1
1.208654342E1,1.774260406E1,-5.677094421E0,4.163442078E0,1.908831187E1
1.209649142E1,2.011277527E1,-7.312593384E0,4.835993500E0,2.194047821E1
1.210643942E1,2.231993546E1,-8.723409576E0,5.165608063E0,2.451450387E1
1.211638742E1,2.461855545E1,-9.938432922E0,5.356610870E0,2.708392515E1
1.212633542E1,2.629941010E1,-1.152992340E1,5.886958008E0,2.931304112E1
1.213628342E1,2.686074280E1,-1.270527924E1,6.242319031E0,3.036264433E1
1.214623142E1,2.691807358E1,-1.341944412E1,6.105353851E0,3.069103308E1
1.215617942E1,2.656690384E1,-1.366598145E1,5.508095856E0,3.037924536E1
1.216612742E1,2.581606522E1,-1.347363144E1,4.450844421E0,2.945875054E1
1.217607542E1,2.443638428E1,-1.298070648E1,3.831432495E0,2.793412773E1
1.218602342E1,2.249282593E1,-1.212448700E1,3.813769226E0,2.583554216E1
1.219597142E1,2.022474243E1,-1.101768860E1,3.676055603E0,2.332258676E1
1.220591942E1,1.788106613E1,-9.883646851E0,3.022364960E0,2.065317629E1
1.221586742E1,1.531450333E1,-8.897347870E0,2.233206024E0,1.785172318E1
1.222581542E1,1.286394928E1,-7.649243317E0,1.286125488E0,1.502152566E1
1.223576342E1,1.083851120E1,-6.395600281E0,5.029541016E-2,1.258489402E1
1.224571142E1,8.641829224E0,-5.205275574E0,-1.109792175E0,1.014927312E1
1.225565942E1,6.806046753E0,-3.323688354E0,-2.563269653E0,7.996219607E0
1.226560842E1,5.544470215E0,-1.880689087E0,-3.867806854E0,7.016984485E0
1.227555642E1,4.471950531E0,-8.137078857E-1,-4.532125397E0,6.418771120E0
1.228550442E1,3.600163422E0,-2.610571289E-1,-4.272265778E0,5.592994043E0
1.229545242E1,3.313958588E0,1.799258423E-1,-3.736679535E0,4.997746370E0
1.230540054E1,3.988156586E0,5.643264771E-2,-3.324885864E0,5.192633591E0
1.231534854E1,5.246589661E0,-7.497908020E-1,-2.673141174E0,5.935871718E0
1.232529654E1,6.425837402E0,-1.591640167E0,-2.014211426E0,6.919664183E0
1.233524454E1,7.272626495E0,-2.054777069E0,-1.654958496E0,7.736413418E0
1.234519254E1,7.811655579E0,-2.693498840E0,-1.027164001E0,8.326581818E0
1.235514054E1,7.870183868E0,-3.245700531E0,-2.439926147E-1,8.516683536E0
1.236508854E1,7.764054565E0,-3.746708679E0,3.228785706E-1,8.626854571E0
1.237503654E1,7.606132965E0,-4.076173553E0,5.607339478E-1,8.647709065E0
1.238498454E1,6.998696136E0,-3.981570282E0,4.022135925E-1,8.062036051E0
1.239493254E1,6.453080750E0,-3.719016266E0,-4.086502075E-2,7.448154342E0
1.240488054E1,6.313421173E0,-4.003724213E0,-2.080673218E-1,7.478795791E0
1.241482854E1,6.428082733E0,-4.658612366E0,3.113525391E-2,7.938758480E0
1.242477654E1,6.550827484E0,-5.408852234E0,3.064128113E-1,8.500759497E0
1.243472454E1,6.786587219E0,-6.163732452E0,5.126838684E-1,9.182167967E0
1.244467254E1,7.259453888E0,-6.812333679E0,7.143145752E-1,9.980872017E0
1.245462054E1,7.995173950E0,-7.323071594E0,8.107141113E-1,1.087232456E1
1.246456854E1,8.815468140E0,-7.764952698E0,8.738827515E-1,1.178009508E1
1.247451654E1,9.287137299E0,-8.249944153E0,1.202299805E0,1.248030539E1
1.248446454E1,9.340875549E0,-8.705446930E0,1.780846710E0,1.289217504E1
1.249441254E1,9.283993835E0,-8.929231567E0,2.298919373E0,1.308467608E1
1.250436054E1,9.115294647E0,-8.883426819E0,2.471510468E0,1.296581014E1
1.251430854E1,8.905131683E0,-8.625513153E0,2.448458405E0,1.263708020E1
1.252425754E1,8.694819031E0,-8.280480652E0,2.354753265E0,1.223564877E1
1.253420554E1,8.853938141E0,-7.848479004E0,2.135608978E0,1.202296423E1
1.254415354E1,9.594897308E0,-7.445067902E0,1.993105316E0,1.230705323E1
1.255410154E1,1.069945038E1,-6.943760376E0,2.165247345E0,1.293763281E1
1.256404954E1,1.206685684E1,-6.042035522E0,2.471061401E0,1.371937942E1
1.257399754E1,1.302426590E1,-5.278922424E0,2.787952423E0,1.432728875E1
1.258394554E1,1.347467926E1,-4.906047821E0,3.042423248E0,1.465921641E1
1.259389354E1,1.411280228E1,-4.387376404E0,2.582579498E0,1.500299892E1
1.260384154E1,1.489552460E1,-4.029171295E0,1.260828094E0,1.548226604E1
1.261378954E1,1.513293091E1,-3.065774689E0,-1.007405090E-1,1.544068395E1
1.262373754E1,1.495584915E1,-9.933343506E-1,-1.298250275E0,1.504491910E1
1.263368554E1,1.457818451E1,5.932164001E-1,-1.986818390E0,1.472490464E1
1.264363354E1,1.401400772E1,1.643432465E0,-1.636397095E0,1.420461468E1
1.265358154E1,1.308414139E1,3.046165466E0,-2.240840149E-1,1.343592548E1
1.266352954E1,1.138427628E1,4.196672974E0,6.991960144E-1,1.215329936E1
1.267347754E1,9.373956757E0,4.656666412E0,4.197271729E-1,1.047529371E1
1.268342554E1,7.433990936E0,4.945266266E0,-4.876858521E-1,8.941907916E0
1.269337354E1,5.758824463E0,5.029690704E0,-1.476230164E0,7.787239772E0
1.270332154E1,4.627926178E0,4.912933502E0,-2.228415985E0,7.107774202E0
1.271326954E1,4.128414917E0,4.577181702E0,-2.643802185E0,6.707018119E0
1.272321754E1,3.925586700E0,4.041745148E0,-2.846480713E0,6.312557899E0
1.273316554E1,3.729793854E0,3.432811432E0,-2.700983276E0,5.743767681E0
1.274311354E1,3.333268433E0,3.231629791E0,-2.356100464E0,5.206276880E0
1.275306154E1,2.979553986E0,3.396287384E0,-2.454595642E0,5.141745785E0
1.276300954E1,2.995121613E0,3.153043213E0,-2.542313232E0,5.037438987E0
1.277295854E1,3.182681580E0,2.806813202E0,-2.221081238E0,4.789662227E0
1.278290654E1,3.734583893E0,2.121987305E0,-1.701212311E0,4.619964318E0
1.279285454E1,4.261637878E0,1.536255341E0,-1.281185760E0,4.707767500E0
1.280280254E1,5.171595612E0,9.015751648E-1,-1.043929138E0,5.352385169E0
1.281275054E1,6.862030334E0,-1.434017944E-1,-7.553292847E-1,6.904965367E0
1.282269854E1,9.179810486E0,-1.628762970E0,-4.779560852E-1,9.335428827E0
1.283264654E1,1.199096466E1,-3.397484894E0,-2.912942505E-1,1.246639440E1
1.284259454E1,1.536390060E1,-5.296136627E0,-1.365161133E-1,1.625168119E1
1.285254254E1,1.890897858E1,-6.889123993E0,-1.853146362E-1,2.012570102E1
1.286249054E1,2.228460892E1,-8.406967621E0,1.365161133E-1,2.381805063E1
1.287243854E1,2.455344086E1,-9.489217072E0,1.005608826E0,2.634251217E1
1.288238654E1,2.530263290E1,-1.021116577E1,2.034868469E0,2.736113718E1
1.289233454E1,2.533316940E1,-1.086979614E1,3.128643951E0,2.774365429E1
1.290228254E1,2.541160629E1,-1.166284698E1,4.343667297E0,2.829556820E1
1.291223054E1,2.552177719E1,-1.246727417E1,5.344186707E0,2.890249760E1
1.292217854E1,2.522494446E1,-1.288834854E1,5.775888977E0,2.890965660E1
1.293212654E1,2.405497742E1,-1.206790466E1,5.366640015E0,2.744225003E1
1.294207454E1,2.281061508E1,-9.999206543E0,3.971092072E0,2.522058414E1
1.295202254E1,2.134501282E1,-8.823401642E0,2.731819153E0,2.325779062E1
1.296197054E1,1.921988205E1,-7.980803833E0,1.848056946E0,2.089287942E1
1.297191854E1,1.667876633E1,-6.829847260E0,1.033450928E0,1.805259207E1
1.298186654E1,1.424063644E1,-5.580844574E0,1.820214844E-1,1.529623105E1
1.299181454E1,1.199096466E1,-4.292174377E0,-7.475454712E-1,1.275793160E1
1.300176254E1,9.912087708E0,-3.163371735E0,-1.589245148E0,1.052530777E1
1.301171054E1,7.596552887E0,-1.878892822E0,-2.235601044E0,8.138535865E0
1.302165854E1,4.971910858E0,2.734812927E-1,-3.147654419E0,5.890875821E0
1.303160654E1,2.924917603E0,1.934726715E0,-4.224215698E0,5.490201154E0
1.304155554E1,1.269360352E0,2.953208771E0,-4.951104126E0,5.903062748E0
1.305150354E1,5.568420410E-2,3.520529022E0,-5.047204285E0,6.153982159E0
1.306145154E1,-8.125103760E-1,3.660787354E0,-4.670587463E0,5.989651443E0
1.307139954E1,-1.564845886E0,3.564687195E0,-4.125720520E0,5.672504496E0
1.308134754E1,-1.988914032E0,3.463198242E0,-3.715723114E0,5.454916988E0
1.309129554E1,-1.944007416E0,3.298540649E0,-3.499871979E0,5.187353768E0
1.310124354E1,-1.650318146E0,3.077001343E0,-3.412004700E0,4.881932334E0
1.311119154E1,-1.255139923E0,2.724933472E0,-3.226240997E0,4.405595263E0
1.312113954E1,-8.490344238E-1,2.242786102E0,-2.822829895E0,3.703959715E0
1.313108754E1,-3.034190369E-1,1.782942352E0,-2.323019257E0,2.944038894E0
1.314103554E1,3.137475586E-1,1.372944946E0,-2.015259247E0,2.458594149E0
1.315098354E1,7.786807251E-1,1.047072601E0,-1.828447723E0,2.246313821E0
1.316093154E1,1.075812836E0,7.473957825E-1,-1.590891724E0,2.060803287E0
1.317087954E1,1.489851837E0,3.094065857E-1,-1.342109070E0,2.028952362E0
1.318082754E1,2.182461548E0,-3.405418396E-1,-1.107247467E0,2.470850887E0
1.319077554E1,3.203039246E0,-1.225351868E0,-9.502239990E-1,3.558633622E0
1.320072354E1,4.829856262E0,-2.518662415E0,-7.213499451E-1,5.494680847E0
1.321067154E1,7.144043884E0,-4.243525543E0,-3.888912964E-1,8.318419832E0
1.322061954E1,9.989476776E0,-6.053262177E0,-1.945953369E-3,1.168039524E1
1.323056754E1,1.302097275E1,-7.687114563E0,3.535647583E-1,1.512489569E1
1.324051554E1,1.574949875E1,-9.141939240E0,5.328918457E-1,1.821828031E1
1.325046354E1,1.791983551E1,-1.052236862E1,5.830375671E-1,2.078895570E1
1.326041154E1,1.956596237E1,-1.179397430E1,7.415579224E-1,2.285770377E1
1.327035954E1,2.083472397E1,-1.258433075E1,1.047222290E0,2.436283600E1
1.328030754E1,2.179797089E1,-1.272354126E1,1.334624634E0,2.527491365E1
1.329025554E1,2.248189865E1,-1.245245499E1,1.367855530E0,2.573655826E1
1.330020354E1,2.242771133E1,-1.199216217E1,1.106798401E0,2.545661391E1
1.331015317E1,2.192011688E1,-1.135299133E1,4.117936707E-1,2.468909699E1
1.332010117E1,2.115311188E1,-1.054033127E1,-8.419990540E-1,2.364871429E1
1.333004917E1,1.979199234E1,-9.883497162E0,-2.237097931E0,2.223535662E1
1.333999717E1,1.824346252E1,-9.375004578E0,-3.356320496E0,2.078411708E1
1.334994517E1,1.669313644E1,-8.029302979E0,-4.710853729E0,1.911341554E1
1.335989317E1,1.517723877E1,-6.660399628E0,-6.060447235E0,1.764762082E1
1.336984117E1,1.349982697E1,-5.370980988E0,-6.707701263E0,1.600268793E1
1.337978917E1,1.170490952E1,-4.260590057E0,-6.094725952E0,1.386734361E1
1.338973717E1,9.937834167E0,-3.036735077E0,-4.562362518E0,1.134889685E1
1.339968517E1,8.657845917E0,-1.929038544E0,-3.283272400E0,9.458296003E0
1.340963317E1,7.569010162E0,-8.093669128E-1,-2.752775574E0,8.094613209E0
1.341958117E1,6.521338806E0,2.820135498E-1,-2.634521484E0,7.039040767E0
1.342952917E1,5.468877411E0,1.028810577E0,-2.626438293E0,6.153474583E0
1.343947717E1,4.039799194E0,1.468446350E0,-2.714455261E0,5.083756444E0
1.344942517E1,2.301314392E0,2.209704895E0,-3.211272125E0,4.526710982E0
1.345937317E1,8.593629456E-1,3.002905426E0,-4.139192505E0,5.185446968E0
1.346932117E1,-3.095562744E-1,3.519630890E0,-4.979095917E0,6.105327414E0
1.347926917E1,-1.106948090E0,3.684587860E0,-5.505251770E0,6.716347134E0
1.348921717E1,-1.602717133E0,3.705544281E0,-5.827830963E0,7.089666731E0
1.349916517E1,-1.885030060E0,3.582500153E0,-5.978268127E0,7.219926279E0
1.350911317E1,-1.961670685E0,3.319197693E0,-5.870342560E0,7.023257575E0
1.351906117E1,-1.755998383E0,2.853067017E0,-5.479804688E0,6.422754949E0
1.352900917E1,-1.258433075E0,2.189347229E0,-4.890929260E0,5.504369548E0
1.353895717E1,-5.607339478E-1,1.555116119E0,-4.302951965E0,4.609577456E0
1.354890517E1,1.535806274E-1,1.080602875E0,-3.739673309E0,3.895695835E0
1.355885317E1,7.632627869E-1,7.711962891E-1,-3.155138855E0,3.336497414E0
1.356880117E1,1.316811676E0,4.324507141E-1,-2.543061676E0,2.896233640E0
1.357875017E1,2.079176331E0,-1.695973206E-1,-1.912572784E0,2.830136414E0
1.358869817E1,3.159180450E0,-9.295669556E-1,-1.405876465E0,3.580643026E0
1.359864617E1,4.550088043E0,-1.768272858E0,-1.131047974E0,5.010924028E0
1.360859417E1,6.278843079E0,-2.751727753E0,-9.910890198E-1,6.926624970E0
1.361854217E1,8.246052246E0,-3.961811371E0,-8.918453979E-1,9.191774323E0
1.362849017E1,1.055530014E1,-5.464686127E0,-8.228388977E-1,1.191445422E1
1.363843817E1,1.354293732E1,-6.956633606E0,-1.000669098E0,1.525802218E1
1.364838617E1,1.745250732E1,-8.695567474E0,-1.286724243E0,1.954120173E1
1.365833417E1,2.142479691E1,-1.077803696E1,-9.476792908E-1,2.400179366E1
1.366828217E1,2.425466217E1,-1.233135681E1,-2.155517578E-2,2.720940026E1
1.367823017E1,2.597263962E1,-1.370669678E1,1.319356384E0,2.939714691E1
1.368817817E1,2.742626678E1,-1.491049347E1,2.995720367E0,3.136075997E1
1.369812617E1,2.795362015E1,-1.552107376E1,4.340523834E0,3.226683680E1
1.370807417E1,2.685445587E1,-1.547002991E1,4.843328247E0,3.136784108E1
1.371802217E1,2.497301834E1,-1.509131744E1,4.258793793E0,2.948790993E1
1.372797017E1,2.345562378E1,-1.479807724E1,3.073558502E0,2.790333562E1
1.373791817E1,2.254461823E1,-1.432371368E1,1.635498962E0,2.676010915E1
1.374786617E1,2.105207199E1,-1.342677887E1,4.987628174E-1,2.497432462E1
1.375781417E1,1.841156296E1,-1.119477036E1,-7.324269104E-1,2.156026398E1
1.376776217E1,1.563857941E1,-9.032516785E0,-1.979783020E0,1.816785805E1
1.377771017E1,1.292801605E1,-7.383994904E0,-2.980901184E0,1.518363434E1
1.378765817E1,1.026415558E1,-5.814358978E0,-3.733985138E0,1.237345162E1
1.379760617E1,7.624095612E0,-4.034410400E0,-4.436773682E0,9.699910406E0
1.380755417E1,5.016967163E0,-1.998045044E0,-4.941673737E0,7.319991997E0
1.381750217E1,2.424358521E0,3.294648743E-1,-5.553601227E0,6.068652892E0
1.382745017E1,2.056723022E-1,1.908082123E0,-5.674100647E0,5.989866162E0
1.383739917E1,-1.720971222E0,2.978057098E0,-4.632716217E0,5.769976220E0
1.384734717E1,-2.783761139E0,3.717669067E0,-3.606450348E0,5.880210327E0
1.385729517E1,-2.990930328E0,4.025129700E0,-3.251388702E0,5.976525899E0
1.386724317E1,-2.587369537E0,4.002227325E0,-3.121458893E0,5.697000115E0
1.387719117E1,-1.964664459E0,3.688629456E0,-2.962040405E0,5.122458107E0
1.388713917E1,-1.487307129E0,3.135529633E0,-2.596051483E0,4.333948762E0
1.389708717E1,-1.131347351E0,2.624941406E0,-1.966011658E0,3.469216922E0
1.390703517E1,-8.451425171E-1,2.211650848E0,-1.222507782E0,2.664618289E0
1.391698317E1,-6.592291260E-1,1.855840759E0,-6.077362061E-1,2.061084972E0
1.392693117E1,-4.141886902E-1,1.589245148E0,-2.454895020E-1,1.660577462E0
1.393687917E1,-2.001338196E-1,1.601220245E0,-6.197113037E-2,1.614868490E0
1.394682717E1,2.454895020E-2,1.611698456E0,-9.610015869E-2,1.614747598E0
1.395677517E1,4.456233215E-1,1.446292419E0,-3.450325012E-1,1.552220775E0
1.396672317E1,1.093925171E0,8.120613098E-1,-6.879693604E-1,1.526242999E0
1.397667117E1,2.120340729E0,-4.077520752E-1,-9.948312378E-1,2.377350574E0
1.398661917E1,3.652105408E0,-1.916165314E0,-1.496887207E0,4.387508943E0
1.399656717E1,5.479505310E0,-3.550317078E0,-2.325863342E0,6.931043939E0
1.400651517E1,7.661817169E0,-5.427263947E0,-3.185076599E0,9.914804548E0
1.401646317E1,1.032792297E1,-7.431895294E0,-3.938459930E0,1.331955432E1
1.402641117E1,1.314012497E1,-9.193432159E0,-4.563709717E0,1.667361765E1
1.403635917E1,1.569710770E1,-1.048270111E1,-4.983436890E0,1.952231687E1
1.404630717E1,1.733140915E1,-1.125838806E1,-5.008584595E0,2.126534656E1
1.405625517E1,1.819795715E1,-1.164338745E1,-4.556524658E0,2.207931233E1
1.406620317E1,1.862816254E1,-1.175535461E1,-4.047433319E0,2.239594870E1
1.407615117E1,1.869103180E1,-1.252969437E1,-3.146606598E0,2.272111449E1
1.408609917E1,1.808434341E1,-1.291259811E1,-2.204316101E0,2.233019651E1
1.409604817E1,1.746358429E1,-1.225860809E1,-2.316283264E0,2.146195277E1
1.410599617E1,1.722602829E1,-1.176029434E1,-3.328628082E0,2.112156099E1
1.411594417E1,1.679761917E1,-1.145088776E1,-4.421954498E0,2.080472355E1
1.412589217E1,1.580069229E1,-1.095122681E1,-5.212460632E0,1.991886019E1
1.413584017E1,1.440170151E1,-1.030427216E1,-5.677693176E0,1.859632304E1
1.414578817E1,1.295271469E1,-9.621990967E0,-6.070925446E0,1.723982784E1
1.415573617E1,1.173574539E1,-8.956025848E0,-6.313570862E0,1.605612954E1
1.416568417E1,1.071801178E1,-8.106392670E0,-6.522236938E0,1.493750158E1
1.417563217E1,9.625882874E0,-6.927743683E0,-6.723119202E0,1.363273947E1
1.418558017E1,8.493338013E0,-5.517077179E0,-6.619235229E0,1.209914072E1
1.419552817E1,7.446564789E0,-4.127666473E0,-6.088439026E0,1.046699801E1
1.420547617E1,6.386469269E0,-2.696193237E0,-5.449567566E0,8.817836149E0
1.421542417E1,5.243595886E0,-1.235081635E0,-5.050497437E0,7.384324534E0
1.422537217E1,4.219275970E0,1.769320679E-1,-4.738845520E0,6.347460243E0
1.423532017E1,3.349734192E0,1.447639618E0,-4.503235474E0,5.796163330E0
1.424526817E1,2.449955292E0,2.389630737E0,-4.459526367E0,5.621386965E0
1.425521617E1,1.508113861E0,3.124302979E0,-4.525090027E0,5.701939694E0
1.426516417E1,8.069718933E-1,3.723656616E0,-4.693340149E0,6.045185190E0
1.427511217E1,3.691323853E-1,4.095932465E0,-4.941374359E0,6.428849199E0
1.428506017E1,1.678010559E-1,4.215234375E0,-5.129832458E0,6.641651834E0
1.429500817E1,6.391708374E-2,4.169579315E0,-5.201383667E0,6.666623516E0
1.430495587E1,-8.681945801E-3,3.976480865E0,-5.124443665E0,6.486323945E0
1.431490387E1,9.879455566E-3,3.637136536E0,-4.898114319E0,6.100851061E0
1.432485187E1,1.624122620E-1,3.135529633E0,-4.643643494E0,5.605474888E0
1.433479987E1,6.150709534E-1,2.445464630E0,-4.375101929E0,5.049764987E0
1.434474787E1,1.376986542E0,1.458566895E0,-4.031865692E0,4.503271065E0
1.435469687E1,2.428998871E0,1.799258423E-1,-3.761078796E0,4.480861807E0
1.436464487E1,3.861669617E0,-1.310075684E0,-3.642525330E0,5.467794921E0
1.437459287E1,5.549859009E0,-2.830314331E0,-3.845353546E0,7.321089955E0
1.438454087E1,7.302414551E0,-4.239633636E0,-4.175117798E0,9.419732495E0
1.439448887E1,9.191935272E0,-5.641618195E0,-4.457730103E0,1.167008516E1
1.440443687E1,1.144445114E1,-7.211852875E0,-4.684957581E0,1.431555487E1
1.441438487E1,1.375983627E1,-8.727002106E0,-4.859494629E0,1.700318641E1
1.442433287E1,1.583272568E1,-1.000369720E1,-4.853207703E0,1.934690635E1
1.443428087E1,1.754247025E1,-1.083940933E1,-4.717290344E0,2.115381491E1
1.444422887E1,1.936657700E1,-1.200548447E1,-4.459825745E0,2.321822576E1
1.445417687E1,2.044897614E1,-1.375130402E1,-3.746708679E0,2.492582623E1
1.446412487E1,2.070898544E1,-1.493833557E1,-2.970722351E0,2.570683059E1
1.447407287E1,2.060315552E1,-1.563828003E1,-2.485730896E0,2.598508568E1
1.448402087E1,2.027863037E1,-1.549383041E1,-2.886297913E0,2.568291935E1
1.449396887E1,1.991698242E1,-1.514655258E1,-3.653153229E0,2.528734412E1
1.450391687E1,1.917153259E1,-1.475826004E1,-3.798500977E0,2.449045755E1
1.451386487E1,1.778062500E1,-1.401580399E1,-3.399580536E0,2.289433412E1
1.452381287E1,1.598046844E1,-1.290122177E1,-2.897973633E0,2.074162834E1
1.453376087E1,1.418824539E1,-1.189067322E1,-2.436932373E0,1.867171809E1
1.454370887E1,1.217882401E1,-1.018811371E1,-2.033371582E0,1.600799847E1
1.455365687E1,1.047731232E1,-8.133336639E0,-1.964514771E0,1.340837636E1
1.456360487E1,8.886121216E0,-6.693630524E0,-1.903741150E0,1.128680957E1
1.457355287E1,7.287295990E0,-5.108876038E0,-1.569785614E0,9.037119236E0
1.458350088E1,5.545817413E0,-3.290607147E0,-1.047521667E0,6.533107057E0
1.459344887E1,3.717818756E0,-1.408121796E0,-6.087840271E-1,4.021890263E0
1.460339687E1,2.128274231E0,2.194436646E-1,-3.944297791E-1,2.175610621E0
1.461334587E1,8.584648132E-1,1.521585846E0,-2.408491516E-1,1.763574108E0
1.462329387E1,-4.610412598E-2,2.507136383E0,-1.478924561E-1,2.511917716E0
1.463324187E1,-8.228388977E-1,3.059038696E0,1.332229614E-2,3.167800354E0
1.464318987E1,-1.465751953E0,3.578757935E0,1.981878662E-1,3.872365630E0
1.465313787E1,-1.693129120E0,3.826492767E0,1.437011719E-1,4.186810617E0
1.466308587E1,-1.491648102E0,3.756737823E0,-1.085243225E-1,4.043497331E0
1.467303387E1,-1.066382446E0,3.598965912E0,-2.987786865E-1,3.765500745E0
1.468298187E1,-4.754113770E-1,3.185076599E0,-3.439846802E-1,3.238680963E0
1.469292987E1,1.633103943E-1,2.489473114E0,-3.162922668E-1,2.514793723E0
1.470287787E1,7.732919312E-1,1.941762085E0,-3.664379883E-1,2.121955986E0
1.471282587E1,1.389560394E0,1.534159698E0,-4.227209473E-1,2.112632734E0
1.472277387E1,1.938468933E0,1.197360077E0,-5.011578369E-1,2.332914944E0
1.473272187E1,2.414928131E0,8.804690552E-1,-5.706134033E-1,2.633002714E0
1.474266987E1,2.905607758E0,4.592449951E-1,-6.991960144E-1,3.023629851E0
1.475261787E1,3.580404510E0,-1.642085266E-1,-1.048419800E0,3.734360049E0
1.476256587E1,4.692741394E0,-1.237776031E0,-1.582808533E0,5.104820677E0
1.477251387E1,6.276448059E0,-2.934198303E0,-2.152673492E0,7.255158378E0
1.478246187E1,8.516240387E0,-5.159470825E0,-2.910697174E0,1.037394079E1
1.479240987E1,1.098894836E1,-7.196135559E0,-3.968996429E0,1.372203650E1
1.480235787E1,1.312979645E1,-8.541088715E0,-5.029840393E0,1.645117156E1
1.481230587E1,1.480750763E1,-9.647887115E0,-5.648952942E0,1.855410136E1
1.482225387E1,1.612880997E1,-1.111528564E1,-5.762416992E0,2.041797090E1
1.483220187E1,1.702948700E1,-1.262519577E1,-5.676645355E0,2.194591757E1
1.484214987E1,1.748139725E1,-1.339923615E1,-5.640720062E0,2.273667746E1
1.485209787E1,1.741358826E1,-1.344683716E1,-5.655988312E0,2.271652899E1
1.486204587E1,1.709729599E1,-1.331002167E1,-5.819747772E0,2.243532195E1
1.487199487E1,1.681423462E1,-1.301588333E1,-5.942193146E0,2.207807428E1
1.488194287E1,1.637968826E1,-1.244526993E1,-6.134393463E0,2.146647885E1
1.489189087E1,1.607342514E1,-1.186657333E1,-6.700665894E0,2.107295617E1
1.490183887E1,1.594334564E1,-1.124701172E1,-7.587122498E0,2.093442071E1
1.491178687E1,1.563828003E1,-1.054332504E1,-8.403225403E0,2.064780139E1
1.492173487E1,1.541389664E1,-9.848619690E0,-9.018595734E0,2.039408219E1
1.493168287E1,1.487756195E1,-8.886570282E0,-9.484427032E0,1.975518507E1
1.494163087E1,1.373124573E1,-7.326065369E0,-1.000264938E1,1.850057669E1
1.495157887E1,1.224034607E1,-5.468428345E0,-1.049198181E1,1.702384982E1
1.496152687E1,1.076845688E1,-3.486849060E0,-1.061337936E1,1.551649450E1
1.497147487E1,9.437574463E0,-1.899849243E0,-9.601034546E0,1.359621650E1
1.498142287E1,8.625962219E0,-9.533674622E-1,-7.774383087E0,1.165148772E1
1.499137087E1,8.117170258E0,2.245330811E-2,-6.504124603E0,1.040156690E1
1.500131887E1,7.810458069E0,1.235231323E0,-5.977968750E0,9.912878595E0
1.501126687E1,7.642806702E0,2.568957825E0,-6.412515106E0,1.030205749E1
1.502121487E1,6.281836853E0,3.503614197E0,-6.646777954E0,9.793694086E0
1.503116287E1,3.705095215E0,4.021836548E0,-6.908134460E0,8.810517663E0
1.504111087E1,1.606459351E0,3.960015106E0,-6.981182556E0,8.185312527E0
1.505105887E1,7.698490906E-1,3.632346497E0,-7.222630463E0,8.121145208E0
1.506100687E1,6.225553894E-1,3.489543457E0,-7.628735962E0,8.412021227E0
1.507095487E1,4.610412598E-1,3.467838593E0,-7.778724060E0,8.529185867E0
1.508090287E1,3.260220337E-1,3.449875946E0,-7.589517517E0,8.343183478E0
1.509085087E1,1.109193420E-1,3.341501312E0,-6.909032593E0,7.675458650E0
1.510079887E1,-1.124162292E-1,3.160527649E0,-6.106850739E0,6.877150454E0
1.511074687E1,5.987548828E-3,3.049757996E0,-5.406307526E0,6.207191051E0
1.512069487E1,3.986210632E-1,2.884501648E0,-4.684807892E0,5.516037844E0
1.513064287E1,9.467811584E-1,2.468965759E0,-3.925586700E0,4.733119207E0
1.514059187E1,1.825903015E0,1.698667603E0,-3.286415863E0,4.125520897E0
1.515053987E1,3.079546051E0,5.879772949E-1,-2.737956390E0,4.162418333E0
1.516048787E1,4.761598206E0,-8.141569519E-1,-2.324815521E0,5.361010746E0
1.517043587E1,6.814579010E0,-2.391427002E0,-1.941163330E0,7.478337065E0
1.518038387E1,9.173224182E0,-4.092489624E0,-1.594035187E0,1.017042091E1
1.519033187E1,1.167916306E1,-5.843997345E0,-1.319206696E0,1.312613656E1
1.520027987E1,1.430245789E1,-7.492219849E0,-1.161883850E0,1.618776186E1
1.521022787E1,1.693473404E1,-8.987310791E0,-9.780661011E-1,1.919670767E1
1.522017587E1,1.945668961E1,-1.019155655E1,-9.376501465E-1,2.198430766E1
1.523012387E1,2.162238602E1,-1.194575867E1,-4.935237122E-1,2.470773751E1
1.524007187E1,2.280552567E1,-1.344264587E1,3.932322693E-1,2.647548603E1
1.525001987E1,2.376024033E1,-1.466380646E1,1.371448059E0,2.795455437E1
1.525996787E1,2.441767319E1,-1.554607178E1,1.855840759E0,2.900598656E1
1.526991587E1,2.423819641E1,-1.524085648E1,1.631906433E0,2.867816225E1
1.527986387E1,2.332644241E1,-1.430021255E1,1.175954590E0,2.738616191E1
1.528981187E1,2.179273178E1,-1.405083115E1,9.235794067E-1,2.594613677E1
1.529975987E1,2.009945297E1,-1.376582382E1,8.369096375E-1,2.437593758E1
1.530970725E1,1.834689743E1,-1.280287628E1,4.861889648E-1,2.237763763E1
1.531965525E1,1.664089508E1,-1.183992874E1,4.041595459E-2,2.042314704E1
1.532960325E1,1.461710358E1,-1.057490936E1,-4.117936707E-1,1.804599676E1
1.533955125E1,1.275752060E1,-8.794362030E0,-1.291663971E0,1.554874693E1
1.534949925E1,1.088790848E1,-7.497758331E0,-2.097588043E0,1.338517115E1
1.535944725E1,8.764124908E0,-6.125112762E0,-2.488574982E0,1.097815546E1
1.536939525E1,6.660399628E0,-4.342020721E0,-2.690355377E0,8.393573685E0
1.537934325E1,4.633764038E0,-2.433339844E0,-3.263663177E0,6.168015020E0
1.538929225E1,2.969524841E0,-6.107299805E-1,-4.353397064E0,5.305010357E0
1.539924025E1,1.736089783E0,1.100661163E0,-4.978796539E0,5.386453166E0
1.540918825E1,9.006770325E-1,1.749561768E0,-4.342769165E0,4.767790842E0
1.541913625E1,1.986369324E-1,1.556014252E0,-2.779270477E0,3.191391760E0
1.542908425E1,7.319778442E-2,1.325493622E0,-1.984872437E0,2.387888156E0
1.543903225E1,7.261399841E-1,8.870553589E-1,-2.087259521E0,2.381343906E0
1.544898025E1,1.673519897E0,4.186793518E-1,-2.098486176E0,2.716542927E0
1.545892825E1,2.466570740E0,5.059478760E-2,-1.970652008E0,3.157530742E0
1.546887625E1,2.981499939E0,-2.427951050E-1,-1.876048737E0,3.530984312E0
1.547882425E1,3.485352173E0,-4.734654236E-1,-1.748813324E0,3.928128984E0
1.548877225E1,3.734434204E0,-5.333409119E-1,-1.643432465E0,4.114768720E0
1.549872025E1,3.596271515E0,-5.116360474E-1,-1.507515106E0,3.932879613E0
1.550866825E1,3.268602905E0,-5.053491211E-1,-1.405427399E0,3.593656753E0
1.551861625E1,2.893482971E0,-4.800517273E-1,-1.428629150E0,3.262464500E0
1.552856425E1,2.731220398E0,-4.346960449E-1,-1.554367676E0,3.172472913E0
1.553851225E1,2.679877167E0,-4.593946838E-1,-1.650168457E0,3.180540998E0
1.554846025E1,2.753524017E0,-6.560856628E-1,-1.628762970E0,3.265763574E0
1.555840825E1,2.892884216E0,-1.118324432E0,-1.581161957E0,3.481307478E0
1.556835625E1,3.226839752E0,-1.920057220E0,-1.581611023E0,4.074384364E0
1.557830425E1,3.985611877E0,-3.056943054E0,-1.583107910E0,5.266520059E0
1.558825225E1,5.186714172E0,-4.392316132E0,-1.644031219E0,6.992659262E0
1.559820025E1,6.908733215E0,-5.858217773E0,-1.770817566E0,9.229577725E0
1.560814825E1,8.894952850E0,-7.447013855E0,-1.954635315E0,1.176430197E1
1.561809625E1,1.100257004E1,-9.118288422E0,-2.083966370E0,1.444100575E1
1.562804425E1,1.315284851E1,-1.051323761E1,-2.220482483E0,1.698399633E1
1.563799225E1,1.535282364E1,-1.138786880E1,-2.708617401E0,1.930619998E1
1.564794125E1,1.737751328E1,-1.176583282E1,-3.562292175E0,2.128620951E1
1.565788925E1,1.946641937E1,-1.193363388E1,-4.615052948E0,2.329488816E1
1.566783725E1,2.078936829E1,-1.200428696E1,-5.723348236E0,2.467908941E1
1.567778525E1,2.122451340E1,-1.184187469E1,-6.678811340E0,2.520548524E1
1.568773325E1,2.154888885E1,-1.093865295E1,-6.659052429E0,2.506694474E1
1.569768125E1,2.162388290E1,-9.814790039E0,-5.888454895E0,2.446622808E1
1.570762925E1,2.137644745E1,-8.752898254E0,-5.114564209E0,2.365849743E1
1.571757725E1,2.075583801E1,-7.641609192E0,-4.461023254E0,2.256323849E1
1.572752525E1,1.978825012E1,-6.191424866E0,-3.865262146E0,2.109143988E1
1.573747325E1,1.865136429E1,-4.988077240E0,-3.154839478E0,1.956290665E1
1.574742125E1,1.695254700E1,-4.565356293E0,-2.205663300E0,1.769452679E1
1.575736925E1,1.501048553E1,-3.910019073E0,-1.601070557E0,1.559379210E1
1.576731725E1,1.325463684E1,-2.566413116E0,-1.979932709E0,1.364521922E1
1.577726525E1,1.150657196E1,-1.334175568E0,-3.159928894E0,1.200693022E1
1.578721325E1,1.012793884E1,7.604187012E-2,-3.446283417E0,1.069849508E1
1.579716125E1,8.470735016E0,1.150357819E0,-3.243904266E0,9.143281124E0
1.580710925E1,6.804100800E0,1.936223602E0,-3.167862396E0,7.751135510E0
1.581705725E1,5.440436554E0,2.978506165E0,-3.167712708E0,6.964499456E0
1.582700525E1,4.353846130E0,4.017794952E0,-3.186423798E0,6.726956892E0
1.583695325E1,3.687581635E0,4.395758972E0,-3.406017151E0,6.672473910E0
1.584690125E1,3.250939636E0,4.216431885E0,-3.676654358E0,6.470293164E0
1.585684925E1,2.768043823E0,4.121678925E0,-3.765120392E0,6.231086208E0
1.586679725E1,2.534978485E0,4.001628571E0,-3.694617004E0,6.007440549E0
1.587674525E1,2.530038757E0,3.570375366E0,-3.353326721E0,5.513027886E0
1.588669325E1,2.875969391E0,3.051703949E0,-2.750081177E0,5.014682782E0
1.589664125E1,3.496279449E0,2.495460663E0,-2.227068787E0,4.838504861E0
1.590659025E1,4.303401031E0,1.869612122E0,-1.877845001E0,5.053811608E0
1.591653825E1,5.204826508E0,1.276695099E0,-1.533411255E0,5.574183297E0
1.592648625E1,6.125112762E0,5.595364380E-1,-1.103056183E0,6.248745500E0
1.593643425E1,7.109615479E0,-4.734654236E-1,-6.271957397E-1,7.152913830E0
1.594638225E1,8.210725708E0,-1.738784180E0,-3.019221497E-1,8.398246487E0
1.595633025E1,9.377549286E0,-2.922522583E0,-1.811233521E-1,9.824071179E0
1.596627825E1,1.072444839E1,-3.888763275E0,-1.902543640E-1,1.140931505E1
1.597622625E1,1.212867828E1,-4.708458710E0,-2.294728088E-1,1.301257385E1
1.598617425E1,1.360640533E1,-5.651497650E0,-1.881587219E-1,1.473462234E1
1.599612225E1,1.532333496E1,-6.984775085E0,-3.293151855E-2,1.684021264E1
1.600607025E1,1.728695160E1,-8.452772369E0,-1.481918335E-2,1.924287598E1
1.601601825E1,1.907079208E1,-9.448052673E0,-5.272036743E-1,2.128940473E1
1.602596625E1,2.070808731E1,-1.079465240E1,-9.885443115E-1,2.337363088E1
1.603591425E1,2.151281387E1,-1.209604614E1,-1.008303223E0,2.470085360E1
1.604586225E1,2.167687271E1,-1.287427780E1,-8.538244629E-1,2.522623348E1
1.605581025E1,2.121493332E1,-1.313892746E1,-6.985972595E-1,2.496383081E1
1.606575825E1,2.052666458E1,-1.268402344E1,-8.559201050E-1,2.414458549E1
1.607570625E1,1.963871109E1,-1.228794708E1,-1.404978333E0,2.320876087E1
1.608565425E1,1.843042374E1,-1.188887695E1,-1.818268890E0,2.200754453E1
1.609560225E1,1.693892532E1,-1.113699051E1,-1.859882355E0,2.035728152E1
1.610555025E1,1.521466095E1,-1.013692017E1,-1.934427338E0,1.838437019E1
1.611549825E1,1.340028397E1,-8.966953125E0,-2.195783844E0,1.627253285E1
1.612544625E1,1.160731247E1,-7.540419617E0,-2.382894745E0,1.404513503E1
1.613539425E1,9.774673462E0,-5.976022797E0,-2.308050385E0,1.168692373E1
1.614534225E1,7.948321381E0,-4.419858856E0,-2.041604462E0,9.320896623E0
1.615529025E1,6.306385803E0,-2.953358459E0,-1.932182007E0,7.226766593E0
1.616523825E1,4.881798248E0,-1.630110168E0,-1.999242554E0,5.521429533E0
1.617518725E1,3.621419220E0,-4.195774841E-1,-1.957479401E0,4.137927988E0
1.618513525E1,2.496807861E0,5.644761658E-1,-1.772314453E0,3.113483798E0
1.619508325E1,1.572030945E0,1.272803192E0,-1.520837402E0,2.530663087E0
1.620503125E1,1.023721161E0,1.689536591E0,-1.314865723E0,2.373059370E0
1.621497925E1,9.208850098E-1,1.852996674E0,-1.211131439E0,2.397595720E0
1.622492725E1,1.234183502E0,1.760039978E0,-1.230291595E0,2.476805816E0
1.623487525E1,1.663041687E0,1.494941254E0,-1.277742920E0,2.575496840E0
1.624482325E1,2.128124542E0,1.089733887E0,-1.281485138E0,2.712680993E0
1.625477125E1,2.615660706E0,5.918692017E-1,-1.231638794E0,2.951088646E0
1.626471925E1,3.030148773E0,1.746867371E-1,-1.233584747E0,3.276285759E0
1.627466725E1,3.369642792E0,-1.778302002E-1,-1.219963074E0,3.588095041E0
1.628461525E1,3.607049103E0,-4.736151123E-1,-1.134041748E0,3.810664665E0
1.629456325E1,3.808679810E0,-7.490423584E-1,-9.895921326E-1,4.005795668E0
1.630451125E1,4.124223633E0,-1.156345367E0,-8.701405334E-1,4.370755053E0
1.631445975E1,4.615801392E0,-1.839674377E0,-8.099656677E-1,5.034487927E0
1.632440775E1,5.320236511E0,-2.804867249E0,-8.430468750E-1,6.073131388E0
1.633435575E1,6.303092651E0,-3.956871643E0,-9.503736877E-1,7.502600904E0
1.634430375E1,7.488627319E0,-5.241649933E0,-1.110241241E0,9.207989398E0
1.635425175E1,8.802894287E0,-6.505172424E0,-1.370549927E0,1.103116599E1
1.636419975E1,1.005234604E1,-7.645501099E0,-1.697320404E0,1.274300767E1
1.637414775E1,1.128697861E1,-8.766370239E0,-1.986519012E0,1.442883887E1
1.638409575E1,1.237731125E1,-9.859397278E0,-2.194137268E0,1.597559973E1
1.639404375E1,1.331810486E1,-1.083192490E1,-2.326013031E0,1.732376549E1
1.640399175E1,1.406864410E1,-1.169203629E1,-2.340832214E0,1.844207024E1
1.641393975E1,1.448642532E1,-1.224528580E1,-2.235301666E0,1.909974127E1
1.642388775E1,1.475840973E1,-1.246413071E1,-2.117796021E0,1.943322598E1
1.643383675E1,1.508368332E1,-1.257280472E1,-2.180665283E0,1.975723214E1
1.644378475E1,1.541344757E1,-1.259765305E1,-2.540367279E0,2.006810141E1
1.645373275E1,1.564112411E1,-1.245200592E1,-3.361559601E0,2.027306829E1
1.646368075E1,1.579051346E1,-1.214768875E1,-4.767286377E0,2.048496221E1
1.647362875E1,1.588421860E1,-1.152677994E1,-5.949078827E0,2.050772038E1
1.648357675E1,1.559801376E1,-1.088850723E1,-6.565646667E0,2.012375063E1
1.649352475E1,1.489657242E1,-1.008273285E1,-6.843768311E0,1.924594857E1
1.650347275E1,1.397419052E1,-8.954079895E0,-6.754853210E0,1.791874966E1
1.651342075E1,1.291858566E1,-7.731572113E0,-6.412365417E0,1.636415269E1
1.652336875E1,1.198078583E1,-6.556665344E0,-6.158343658E0,1.498179849E1
1.653331675E1,1.108744354E1,-5.286257172E0,-6.163882141E0,1.374297501E1
1.654326475E1,1.002390518E1,-4.009562073E0,-6.210884399E0,1.245513340E1
1.655321275E1,8.943152618E0,-2.688708801E0,-5.894292755E0,1.104317983E1
1.656316075E1,7.842192078E0,-1.241817627E0,-5.149291992E0,9.463471647E0
1.657310875E1,6.444398804E0,-7.289840698E-2,-4.477039948E0,7.847259191E0
1.658305675E1,5.128634949E0,1.006806335E0,-3.762276306E0,6.439819752E0
1.659300475E1,3.914809113E0,1.867217102E0,-3.210224304E0,5.396088415E0
1.660295275E1,2.717898102E0,2.439926147E0,-3.337310028E0,4.947509264E0
1.661290075E1,1.833387451E0,2.909499664E0,-3.670816498E0,5.030048867E0
1.662284875E1,1.297501831E0,3.044818268E0,-4.028422852E0,5.213695422E0
1.663279675E1,9.467811584E-1,3.019670563E0,-4.455933838E0,5.465359205E0
1.664274475E1,8.190966797E-1,3.095862122E0,-4.730762329E0,5.712739611E0
1.665269275E1,8.243357849E-1,3.087180176E0,-4.851261749E0,5.809040496E0
1.666264075E1,1.037642212E0,3.087180176E0,-4.859644318E0,5.850087665E0
1.667258875E1,1.251846771E0,2.939886475E0,-4.611310730E0,5.610190680E0
1.668253675E1,1.503174133E0,2.301913147E0,-4.152664490E0,4.980256919E0
1.669248475E1,1.903292084E0,1.525926819E0,-3.839665375E0,4.549066234E0
1.670243375E1,2.495460663E0,8.092172241E-1,-3.688180389E0,4.526017126E0
1.671238175E1,3.295846252E0,-1.257385254E-2,-3.504811707E0,4.811077397E0
1.672232975E1,4.325105896E0,-9.285191345E-1,-3.282374268E0,5.508418069E0
