"Time (s)","Acceleration x (m/s^2)","Acceleration y (m/s^2)","Acceleration z (m/s^2)","Absolute acceleration (m/s^2)"
1.952624996E-3,-2.882705383E0,4.391567688E0,7.959997101E0,9.537159479E0
1.192062499E-2,-2.652783508E0,4.660258942E0,7.825876007E0,9.486812374E0
2.188962500E-2,-2.884801025E0,4.821324005E0,8.330027618E0,1.004771627E1
3.185762500E-2,-2.657423859E0,5.079686737E0,8.672066345E0,1.039566514E1
4.182662501E-2,-2.177821198E0,5.059628448E0,9.460027771E0,1.094691147E1
5.179462500E-2,-2.054328003E0,4.584516449E0,9.968520355E0,1.116286042E1
6.176362501E-2,-2.133064270E0,4.261637878E0,9.904154205E0,1.099107780E1
7.173162501E-2,-2.120041351E0,4.289330292E0,9.931397552E0,1.102386443E1
8.170062501E-2,-2.064955902E0,4.341272278E0,1.018167709E1,1.125953979E1
9.166862501E-2,-1.912273407E0,4.425846405E0,1.014829651E1,1.123533836E1
1.016366250E-1,-1.704355774E0,4.627776489E0,1.008348129E1,1.122487144E1
1.116056250E-1,-1.442999268E0,4.725523224E0,9.996811523E0,1.115119084E1
1.215736250E-1,-3.420387268E-1,4.901108093E0,1.037941589E1,1.148347183E1
1.315426250E-1,-1.613644409E-1,4.225413208E0,1.109417953E1,1.187269872E1
1.415106250E-1,-5.167254639E-1,3.399580536E0,1.130958160E1,1.182077785E1
1.514796250E-1,2.390528870E-1,3.456761627E0,1.177960419E1,1.227865718E1
1.614476250E-1,2.179467773E-1,3.099005585E0,1.222747284E1,1.261595928E1
1.714156250E-1,-8.981323242E-2,2.827170868E0,1.303384598E1,1.333724494E1
1.813846250E-1,2.739303589E-2,2.987188110E0,1.394260620E1,1.425904313E1
1.913526250E-1,2.664459229E-1,2.876418457E0,1.424288177E1,1.453287507E1
2.013216250E-1,8.306227112E-1,2.628234558E0,1.381117950E1,1.408354466E1
2.112896250E-1,1.429676971E0,2.279160461E0,1.265573227E1,1.293855123E1
2.212586250E-1,1.766027527E0,1.680704956E0,1.110346024E1,1.136795723E1
2.312266250E-1,1.574126587E0,1.267115021E0,9.756411438E0,9.963484287E0
2.411946250E-1,1.670376434E0,1.096170502E0,8.426576843E0,8.660193098E0
2.511636250E-1,2.069446564E0,6.201603699E-1,7.694898376E0,7.992413214E0
2.611316250E-1,2.033820648E0,-5.873785400E-1,6.867419128E0,7.186298454E0
2.711006250E-1,2.216889954E0,-8.186476135E-1,7.645950165E0,8.002833180E0
2.810686250E-1,1.050066376E0,4.020639038E-1,9.829309845E0,9.893413304E0
2.910376250E-1,-1.225950623E-1,1.889969788E0,9.152267761E0,9.346176786E0
3.010056250E-1,1.020727386E0,8.271798706E-1,1.122620499E1,1.130282218E1
3.109736250E-1,1.573527832E0,-2.511776733E-1,1.029364426E1,1.041624655E1
3.209426250E-1,2.743345184E0,-4.682263184E-1,1.022089554E1,1.059301111E1
3.309106250E-1,3.345542908E0,-7.786807251E-1,1.016146912E1,1.072634400E1
3.408796250E-1,3.437900848E0,-8.881031799E-1,9.131311340E0,9.797384156E0
3.508476250E-1,3.602259064E0,-8.550219727E-1,7.364086304E0,8.242396498E0
3.608166250E-1,3.685935059E0,-3.921844482E-1,4.740492096E0,6.017656621E0
3.707846250E-1,3.665727081E0,-2.170486450E-1,2.685415649E0,4.549299106E0
3.807526250E-1,4.011208649E0,-3.414399719E-1,1.267713776E0,4.220601177E0
3.907216250E-1,4.151766357E0,1.330583038E0,1.649869080E0,4.661510816E0
4.006896250E-1,4.083208923E0,2.146087189E0,3.210673370E0,5.620205408E0
4.106586250E-1,5.275928650E0,1.435514832E0,4.572241974E0,7.127518686E0
4.206266250E-1,6.379433899E0,7.580236816E-1,5.204976196E0,8.268225564E0
4.305956250E-1,5.305866394E0,1.076261902E-1,4.018094330E0,6.656491841E0
4.405636250E-1,4.236639862E0,-1.576222229E-1,2.047592010E0,4.708141367E0
4.505316250E-1,3.488345947E0,3.483256531E-1,3.683839417E-1,3.524995736E0
4.605006250E-1,3.113525391E0,3.207829285E-1,-9.623487854E-1,3.274607951E0
4.704686250E-1,3.132835236E0,-3.833528137E-1,-1.419647827E0,3.460782563E0
4.804376250E-1,3.341800690E0,-1.661844177E0,-3.984713745E-1,3.753416757E0
4.904056250E-1,2.571053467E0,-3.151546326E0,1.341959381E0,4.282921334E0
5.003746250E-1,1.451082458E0,-4.774172058E0,2.194736023E0,5.451167338E0
5.103426250E-1,1.851649475E-1,-6.421197052E0,2.444865875E0,6.873385395E0
5.203106250E-1,-7.017407227E-1,-8.223149872E0,2.269430695E0,8.559377871E0
5.302796250E-1,-9.684860229E-1,-9.934241638E0,6.360273743E-1,1.000158252E1
5.402476250E-1,1.924996948E-1,-1.028346542E1,1.363664246E-1,1.028617096E1
5.502166250E-1,1.793121185E0,-9.278455353E0,1.411115570E0,9.554907873E0
5.601846250E-1,4.011657715E0,-8.491242371E0,2.173180847E0,9.639362511E0
5.701536250E-1,6.331533508E0,-8.239615631E0,2.171534271E0,1.061579688E1
5.801216250E-1,7.868237915E0,-7.927065582E0,2.155966644E0,1.137522434E1
5.900906250E-1,9.227561188E0,-7.661068726E0,2.880909119E0,1.233448405E1
6.000586250E-1,1.013033386E1,-7.584428101E0,4.295617218E0,1.336411393E1
6.100266250E-1,1.143352386E1,-8.307873688E0,4.968318329E0,1.498100198E1
6.199956250E-1,1.188363785E1,-8.425079956E0,5.878874817E0,1.570872337E1
6.299636250E-1,1.274779083E1,-8.490793304E0,6.370751953E0,1.658873782E1
6.399326250E-1,1.396386200E1,-8.225694580E0,7.392976227E0,1.781312973E1
6.499006250E-1,1.528381714E1,-8.096962280E0,9.577383728E0,1.977073958E1
6.598696250E-1,1.785786438E1,-7.926466827E0,1.170670578E1,2.277672401E1
6.698376250E-1,2.070524323E1,-6.294710083E0,1.289897644E1,2.519353221E1
6.798056250E-1,2.275044022E1,-4.478686523E0,1.240275833E1,2.629580912E1
6.897746250E-1,2.300221664E1,-2.559078369E0,1.064750839E1,2.547587658E1
6.997426250E-1,2.266466858E1,-1.639540558E0,8.731343079E0,2.434361614E1
7.097116250E-1,2.350427261E1,-6.352789307E-1,8.047714691E0,2.485196415E1
7.196796250E-1,2.455448868E1,7.045848083E-1,7.770042114E0,2.576417878E1
7.296486250E-1,2.496822830E1,1.581461334E0,7.181915131E0,2.602870242E1
7.396166250E-1,2.356354935E1,2.148781586E0,5.623356171E0,2.432036708E1
7.495846250E-1,2.166295166E1,2.346370697E0,3.459006958E0,2.206249440E1
7.595536250E-1,2.008717850E1,2.683619385E0,1.639091492E0,2.033182662E1
7.695216250E-1,1.904489594E1,3.230432281E0,4.385879517E-1,1.932190760E1
7.794906250E-1,1.812760345E1,3.313060455E0,-4.803511047E-1,1.843412905E1
7.894586250E-1,1.701287155E1,2.662662964E0,-1.117426300E0,1.725619350E1
7.994276250E-1,1.590248062E1,1.691931610E0,-1.281485138E0,1.604349484E1
8.093956250E-1,1.543859528E1,7.550299072E-1,-8.907975769E-1,1.548269403E1
8.193636250E-1,1.524714340E1,2.209405518E-1,-6.023474121E-1,1.526063626E1
8.293326250E-1,1.530716858E1,1.413061523E-1,-8.354127502E-1,1.533059985E1
8.393006250E-1,1.446112793E1,-1.962419128E-1,-1.328637085E0,1.452336078E1
8.492696250E-1,1.363125366E1,-5.773493958E-1,-1.830094299E0,1.376566939E1
8.592376250E-1,1.243434265E1,-8.502319336E-1,-2.567460938E0,1.272507867E1
8.692066250E-1,1.120060822E1,-1.322499847E0,-3.378474426E0,1.177356020E1
8.791746250E-1,1.005668701E1,-2.399510193E0,-3.897594910E0,1.104924653E1
8.891426250E-1,9.302255859E0,-4.329147491E0,-4.354893951E0,1.114623629E1
8.991116250E-1,7.988288269E0,-4.855453033E0,-3.976331177E0,1.015870972E1
9.090796250E-1,6.261179810E0,-6.222709808E0,-3.390150146E0,9.456088408E0
9.190487083E-1,5.669011230E0,-6.275699615E0,-2.955005035E0,8.958467991E0
9.290167083E-1,5.880970459E0,-4.744683380E0,-3.215463409E0,8.212005775E0
9.389857083E-1,5.556145935E0,-3.255879364E0,-3.503464508E0,7.331150772E0
9.489537083E-1,5.385650482E0,-2.379601593E0,-3.764371948E0,6.988435520E0
9.589217083E-1,5.292693787E0,-2.262994080E0,-3.408262482E0,6.689544294E0
9.688907083E-1,5.204527130E0,-1.854643250E0,-2.900069275E0,6.239968432E0
9.788587083E-1,5.246290283E0,-1.457668762E0,-2.306553497E0,5.913421090E0
9.888277083E-1,5.901477814E0,-1.546134796E0,-8.198451233E-1,6.155495043E0
9.987957083E-1,6.427633667E0,-1.534010010E0,1.050964508E0,6.691202259E0
1.008763708E0,6.306834869E0,-2.015109558E0,2.906505890E0,7.230809712E0
1.018732708E0,5.398224335E0,-2.580633545E0,3.442990265E0,6.903236735E0
1.028700708E0,5.365442505E0,-2.872975616E0,2.810256042E0,6.703693101E0
1.038669708E0,5.584736481E0,-2.755170593E0,1.635498962E0,6.438563769E0
1.048637708E0,4.832999725E0,-2.423011322E0,8.479866028E-1,5.472472155E0
1.058606708E0,3.467838593E0,-3.064726868E0,-2.192939758E-1,4.633200311E0
1.068574708E0,3.384611664E0,-3.071612549E0,-1.619033203E0,4.848883199E0
1.078542708E0,4.571643219E0,-2.457589417E0,-1.864373016E0,5.515029846E0
1.088511708E0,5.631589050E0,-3.896996155E0,-1.857637024E0,7.095927675E0
1.098479708E0,8.421487427E0,-4.404141541E0,-1.686842194E0,9.652116337E0
1.108448708E0,1.055275543E1,-4.534520416E0,-1.406175842E0,1.157151041E1
1.118416708E0,1.198692307E1,-6.164181519E0,-1.525926819E0,1.356509901E1
1.128385708E0,1.387135437E1,-7.082821198E0,-1.900597687E0,1.569054173E1
1.138353708E0,1.645797546E1,-5.416186981E0,-2.838696899E0,1.755728447E1
1.148321708E0,1.797806442E1,-2.839145966E0,-2.876568146E0,1.842677928E1
1.158290708E0,1.766940628E1,-2.397115173E0,-2.901865540E0,1.806584908E1
1.168258708E0,1.749112701E1,-2.174528046E0,-4.140240326E0,1.810551536E1
1.178227708E0,1.637594604E1,-6.932084656E-1,-5.588329010E0,1.731708890E1
1.188195708E0,1.453013443E1,-6.800358582E-1,-6.409970398E0,1.589575339E1
1.198163708E0,1.388617355E1,-2.509980469E0,-3.413501587E0,1.451818897E1
1.208132708E0,1.356449249E1,-5.293142853E0,8.294252014E-1,1.458426426E1
1.218100708E0,1.314012497E1,-7.202721863E0,3.655099182E0,1.542406679E1
1.228069708E0,1.212837891E1,-7.732769623E0,4.620142365E0,1.510758142E1
1.238037708E0,1.052581146E1,-7.705526276E0,4.183949432E0,1.369938958E1
1.248006708E0,1.022778122E1,-7.398365021E0,3.379222870E0,1.306761114E1
1.257974708E0,1.249900818E1,-5.539081421E0,4.623884583E-1,1.367919704E1
1.267942708E0,1.500734207E1,-2.972518616E0,-2.453847198E0,1.549443607E1
1.277911708E0,1.337274124E1,-3.971690826E0,-2.636467438E0,1.419702423E1
1.287879708E0,9.411678314E0,-5.719755707E0,-5.324427795E-1,1.102627722E1
1.297848708E0,8.301886139E0,-6.204148407E0,5.679190063E-1,1.037956179E1
1.307816708E0,9.304950256E0,-6.283184052E0,1.456770630E0,1.132177909E1
1.317785708E0,1.010713211E1,-6.276897125E0,3.716770935E0,1.246466779E1
1.327753708E0,1.033645523E1,-6.803052979E0,6.251450043E0,1.386378246E1
1.337721708E0,1.018467087E1,-6.797963562E0,7.216193848E0,1.421313769E1
1.347690708E0,9.609117737E0,-6.011648712E0,6.727310486E0,1.318073482E1
1.357658708E0,9.559870148E0,-5.158872070E0,6.340664520E0,1.257812008E1
1.367627708E0,9.810299377E0,-4.348307648E0,6.269263000E0,1.242792870E1
1.377595708E0,9.956694946E0,-3.401526489E0,5.536536713E0,1.188946574E1
1.387563708E0,9.973460083E0,-3.153492279E0,5.091961212E0,1.163367906E1
1.397532708E0,1.052655991E1,-2.871029663E0,4.978197784E0,1.199307000E1
1.407500708E0,1.056592804E1,-1.322948914E0,2.872376862E0,1.102903341E1
1.417469708E0,1.025277924E1,-4.508624268E-1,1.121767273E0,1.032381329E1
1.427437708E0,1.091964249E1,-5.074447632E-2,1.819616089E0,1.107032835E1
1.437406708E0,9.802515564E0,5.782475281E-1,8.900491333E-1,9.859810802E0
1.447374708E0,8.035589905E0,9.488768005E-1,-1.104852448E0,8.166502999E0
1.457342708E0,7.358248444E0,9.439370728E-1,-1.102158051E0,7.499972648E0
1.467311708E0,7.122039642E0,1.170416107E0,-1.476230164E0,7.366992468E0
1.477279708E0,7.049290924E0,9.505233765E-1,-1.468596039E0,7.263110322E0
1.487248708E0,5.801934814E0,-1.624122620E-1,-1.093925171E0,5.906394637E0
1.497216708E0,4.639152832E0,-1.748064880E0,-5.122348022E-1,4.983959703E0
1.507185708E0,3.550167389E0,-2.402653656E0,-8.247848511E-1,4.365398393E0
1.517153708E0,2.888692932E0,-2.431842957E0,-1.040635986E0,3.916801026E0
1.527121708E0,3.469485168E0,-2.670297089E0,-9.400451660E-2,4.379115290E0
1.537090708E0,3.985611877E0,-1.835333405E0,-3.044668579E-1,4.398437315E0
1.547058708E0,3.987557831E0,-9.071136475E-2,-2.062560883E0,4.490323307E0
1.557027708E0,4.542453918E0,1.341510315E0,-3.270848236E0,5.756039064E0
1.566995708E0,5.669759674E0,2.061962128E0,-3.056194611E0,6.763001410E0
1.576964708E0,6.056555328E0,1.500180359E0,-2.175426178E0,6.607940875E0
1.586932708E0,5.279221802E0,3.179388428E-1,-1.808688812E0,5.589510100E0
1.596900708E0,5.876629486E0,-1.836530914E0,-1.856439514E0,6.430706616E0
1.606869708E0,8.799152069E0,-4.086352386E0,4.086502075E-1,9.710321722E0
1.616837708E0,1.040710831E1,-5.156027985E0,2.880609741E0,1.196622081E1
1.626806708E0,8.080197144E0,-4.394711151E0,2.098186798E0,9.434270498E0
1.636774708E0,5.958209839E0,-3.373085632E0,-4.311035156E-2,6.846884669E0
1.646742708E0,5.605992279E0,-2.604434052E0,-1.377285919E0,6.333020027E0
1.656711708E0,6.996450806E0,-1.729204102E0,-1.826801147E0,7.434895637E0
1.666679708E0,8.145012360E0,-1.840572510E0,-2.861150208E0,8.826953835E0
1.676648708E0,7.120243378E0,-2.318827972E0,-5.109325104E0,9.065320289E0
1.686616708E0,5.317093048E0,-2.246528320E0,-6.790628815E0,8.912407513E0
1.696585708E0,7.033723297E0,-2.494562531E0,-7.249424744E0,1.040433875E1
1.706553708E0,8.527467041E0,-3.069516907E0,-4.085154877E0,9.941233251E0
1.716521708E0,1.100466568E1,-2.118694153E0,-1.301842804E0,1.128212419E1
1.726490708E0,1.431084045E1,-1.084045715E0,2.439926147E-2,1.435186068E1
1.736458708E0,1.846934280E1,-2.993774414E-2,5.170996857E0,1.917959145E1
1.746427708E0,1.852981705E1,1.014889526E-1,5.731581116E0,1.939627392E1
1.756395708E0,1.538485703E1,-4.951702881E-1,2.264940033E0,1.555856589E1
1.766364708E0,1.182660645E1,-1.343007202E0,-1.130898285E0,1.195622095E1
1.776332708E0,1.047701294E1,-2.240391083E0,-2.143692169E0,1.092623304E1
1.786300708E0,1.057625656E1,-2.649640045E0,-3.464545441E0,1.144031775E1
1.796269708E0,8.401878204E0,-3.545077972E0,-8.363557892E0,1.237369128E1
1.806237708E0,7.696694641E0,-5.486241302E0,-9.844578094E0,1.364747852E1
1.816206708E0,9.123976593E0,-6.045628052E0,-6.804849243E0,1.288807746E1
1.826174708E0,1.164593216E1,-6.444398804E0,-5.544769592E0,1.441882386E1
1.836143708E0,1.527947617E1,-7.536827087E0,-3.926484833E0,1.748380501E1
1.846111708E0,1.736943008E1,-7.917784882E0,-2.229164429E0,1.921867823E1
1.856079708E0,1.846844467E1,-7.986492004E0,-7.457492065E-1,2.013513459E1
1.866048708E0,1.911315399E1,-8.497529297E0,6.144721985E-1,2.092601815E1
1.876016708E0,1.895418457E1,-9.176217957E0,1.986968079E0,2.115211883E1
1.885985708E0,1.809063034E1,-9.948611755E0,7.786807251E-1,2.066039994E1
1.895953708E0,1.630693954E1,-1.071636520E1,-6.221063232E-1,1.952290390E1
1.905922708E0,1.478999405E1,-1.146421005E1,-1.571731567E0,1.877877462E1
1.915890708E0,1.239048386E1,-1.221385117E1,-2.548899536E0,1.758405924E1
1.925858458E0,9.427545319E0,-1.234752319E1,-5.034929810E0,1.633066006E1
1.935827458E0,7.346273346E0,-1.083656525E1,-7.092101898E0,1.488948581E1
1.945795458E0,7.874824219E0,-9.173224182E0,-6.581064606E0,1.376485778E1
1.955764458E0,9.844278717E0,-7.610324249E0,-4.321213989E0,1.317193034E1
1.965732458E0,1.125120300E1,-6.375691681E0,-1.996248779E0,1.308525975E1
1.975701458E0,9.994266815E0,-5.722749481E0,-1.720522156E0,1.164454496E1
1.985669458E0,7.659721527E0,-4.896916809E0,-4.970713348E0,1.036142458E1
1.995637458E0,6.297703857E0,-1.954635315E0,-4.950355682E0,8.245465085E0
2.005606458E0,6.286477203E0,-5.869294739E-1,-2.351909180E0,6.737637466E0
2.015574458E0,7.312892761E0,-1.396595764E0,-6.447093201E-1,7.472919802E0
2.025543458E0,7.906258850E0,-2.014361115E0,9.924362183E-2,8.159438032E0
2.035511458E0,8.109536133E0,-1.522933044E0,3.037184143E-1,8.256884777E0
2.045480458E0,7.826175385E0,-1.666334839E0,2.228865051E-1,8.004709323E0
2.055448458E0,7.538773041E0,-2.627186737E0,7.455995178E-1,8.018174839E0
2.065416458E0,6.235433350E0,-3.180136871E0,1.637594604E0,7.188575357E0
2.075385458E0,2.399061127E0,-2.434687042E0,-9.151968384E-1,3.538471497E0
2.085353458E0,1.691482544E-2,-1.123563538E0,-3.591481476E0,3.763166263E0
2.095322458E0,1.833986206E0,-2.897973633E-1,-2.133363647E0,2.828202321E0
2.105290458E0,3.162174225E0,-5.007087708E-1,-7.117698669E-1,3.279736490E0
2.115259458E0,5.076094208E0,-5.426216125E-1,3.228785706E-1,5.115214677E0
2.125227458E0,9.972561951E0,1.228645020E0,2.331850891E0,1.031499341E1
2.135195458E0,9.339378662E0,2.825673981E0,8.385562134E-1,9.793446981E0
2.145164458E0,4.557871857E0,6.183641052E-1,-1.655108185E0,4.888348712E0
2.155132458E0,3.268752594E0,-1.556912384E0,-1.892813873E0,4.085518823E0
2.165101458E0,2.912643127E0,-3.334465942E0,-2.100132751E0,4.900276592E0
2.175069458E0,4.987777863E0,-4.690346375E0,-2.935994568E0,7.449653765E0
2.185038458E0,9.067394257E0,-4.977149963E0,-1.839824066E0,1.050593227E1
2.195006458E0,1.257819351E1,-3.840264130E0,9.892927551E-1,1.318852838E1
2.204974458E0,1.548095718E1,-2.559976501E0,1.597627716E0,1.577231528E1
2.214943458E0,1.806533295E1,-2.381248169E0,6.212081909E-2,1.822170289E1
2.224911458E0,1.865301086E1,-1.579216003E0,-1.799557800E0,1.880604014E1
2.234880458E0,1.769919434E1,1.323248291E-1,-4.987628174E-1,1.770671495E1
2.244848458E0,1.246652573E1,1.689237213E0,3.157234497E0,1.297057885E1
2.254817458E0,8.047415314E0,1.272354126E-2,9.975256348E-1,8.109014275E0
2.264785458E0,7.485932922E0,-2.837948456E0,-1.599873047E0,8.164112746E0
2.274753458E0,7.312443695E0,-3.104993134E0,-2.228565674E0,8.251019338E0
2.284722458E0,8.779542847E0,-1.898502045E0,-3.002306671E0,9.470930681E0
2.294690458E0,9.965526581E0,-2.974614258E0,-2.789748688E0,1.076767142E1
2.304659458E0,8.853189697E0,-5.602250061E0,-1.257385254E0,1.055202309E1
2.314627458E0,7.109914856E0,-4.912484436E0,5.897735596E-2,8.642156613E0
2.324595458E0,5.748046875E0,-2.962788849E0,1.479074249E0,6.633688361E0
2.334564458E0,6.250851288E0,-4.350253601E0,7.484436035E-1,7.652320958E0
2.344532458E0,7.254663849E0,-6.789730682E0,-1.809586945E0,1.009976214E1
2.354501458E0,3.753145294E0,-7.499554596E0,-9.827064514E-1,8.443644397E0
2.364469458E0,3.728746033E0,-8.928183746E0,4.093986511E-1,9.684194300E0
2.374438458E0,7.389084320E0,-9.717791748E0,1.445244598E0,1.229320038E1
2.384406458E0,7.024292908E0,-9.019793243E0,3.172053680E0,1.186420185E1
2.394374458E0,4.865631866E0,-8.142467651E0,1.664388885E0,9.630386455E0
2.404343458E0,2.674338684E0,-7.179220734E0,7.937992859E-1,7.702169503E0
2.414311458E0,1.385518799E0,-6.625222778E0,2.040257263E-1,6.771622088E0
2.424280458E0,1.435065765E0,-5.963448944E0,-5.411247253E-1,6.157511919E0
2.434248458E0,1.384321289E0,-5.090164948E0,-9.072633362E-1,5.352499546E0
2.444217458E0,1.514999542E0,-4.749024353E0,-1.541644135E0,5.217769883E0
2.454185458E0,1.746717682E0,-4.832999725E0,-2.531236267E0,5.728530880E0
2.464153458E0,2.195783844E0,-5.055586853E0,-3.347189484E0,6.448573684E0
2.474122458E0,3.115621033E0,-5.214406586E0,-3.177592163E0,6.855233214E0
2.484090458E0,3.852239227E0,-5.488935699E0,-2.639461212E0,7.206588490E0
2.494059458E0,4.398752747E0,-5.949228516E0,-2.161205750E0,7.707992991E0
2.504027458E0,4.568948822E0,-6.173761597E0,-1.350641327E0,7.798388140E0
2.513995458E0,4.042643280E0,-6.023623810E0,-7.216493225E-1,7.290252824E0
2.523964458E0,4.205953674E0,-6.202352142E0,-7.200027466E-2,7.494291324E0
2.533932458E0,8.071215820E0,-7.750582581E0,3.641627197E0,1.176764649E1
2.543901458E0,1.193557983E1,-9.178762665E0,5.304070129E0,1.596373734E1
2.553869458E0,1.220067856E1,-9.527537384E0,4.913083191E0,1.624096402E1
2.563838458E0,1.020368134E1,-9.271869049E0,4.575535126E0,1.452646516E1
2.573806458E0,7.841293945E0,-8.536598053E0,3.063978424E0,1.198946875E1
2.583774458E0,6.355184326E0,-8.196205902E0,1.244512024E0,1.044581108E1
2.593743458E0,6.368207245E0,-8.045469360E0,-2.445165253E0,1.054810286E1
2.603711458E0,6.958878937E0,-8.584797821E0,-4.998555450E0,1.212890375E1
2.613680458E0,6.309379578E0,-1.300450699E1,-1.039438477E0,1.449158049E1
2.623648458E0,4.807702332E0,-1.723920090E1,-3.041674805E-1,1.789962478E1
2.633616458E0,3.129242706E0,-1.918964493E1,-1.078058167E0,1.947297722E1
2.643585458E0,1.580413513E0,-1.923679688E1,6.601272583E-2,1.930172061E1
2.653553458E0,1.467099152E0,-1.728650253E1,1.007554779E0,1.737788009E1
2.663522458E0,2.238594818E0,-1.408316391E1,1.686842194E0,1.435939585E1
2.673490458E0,1.906884613E0,-1.113085327E1,1.068029022E0,1.134340291E1
2.683459458E0,7.294331360E-1,-9.032666473E0,-2.787203979E-1,9.066356566E0
2.693427458E0,1.999841309E-1,-7.900271301E0,-1.301393738E0,8.009238787E0
2.703395458E0,2.537223816E-1,-7.384743347E0,-1.712888031E0,7.585037558E0
2.713364458E0,5.828878784E-1,-7.144942017E0,-1.949845276E0,7.429121839E0
2.723332458E0,1.450633392E0,-7.676786041E0,-2.171683960E0,8.108858883E0
2.733301458E0,2.891087952E0,-8.852590942E0,-2.185754700E0,9.565786928E0
2.743269458E0,6.134094086E0,-1.037013519E1,-2.140548706E0,1.223718771E1
2.753237458E0,7.745792542E0,-1.018766464E1,-8.155041504E-1,1.282383952E1
2.763206458E0,8.672964478E0,-1.021341110E1,-2.059716797E-1,1.340061579E1
2.773174458E0,7.696095886E0,-1.033870056E1,3.047662354E-1,1.289230405E1
2.783143458E0,6.317313080E0,-9.676926727E0,5.023553467E-1,1.156735563E1
2.793111458E0,5.386548615E0,-9.443262634E0,4.035607910E-1,1.087901542E1
2.803079458E0,5.166805573E0,-9.977052612E0,2.451901245E-1,1.123821947E1
2.813048458E0,4.925207977E0,-1.046249313E1,-4.311035156E-2,1.156387888E1
2.823016458E0,4.337679749E0,-1.065783691E1,-2.686912537E-1,1.150987178E1
2.832985458E0,3.455414429E0,-1.096305222E1,-8.909472656E-1,1.152918860E1
2.842953458E0,3.153791656E0,-1.190384583E1,-1.509760437E0,1.240674509E1
2.852922458E0,3.653901672E0,-1.330119003E1,-1.959724731E0,1.393245042E1
2.862890458E0,3.949536896E0,-1.513367935E1,-2.132315826E0,1.578524194E1
2.872858458E0,3.586990814E0,-1.772149796E1,-1.801653442E0,1.817041408E1
2.882827458E0,2.393522644E0,-2.009122009E1,-9.524693298E-1,2.025569730E1
2.892795458E0,1.091380463E0,-2.227218475E1,6.354286194E-1,2.230796034E1
2.902764458E0,-5.044509888E-2,-2.338407257E1,2.181563416E0,2.348566826E1
2.912732458E0,-1.330882416E0,-2.187955124E1,1.348096619E0,2.196140649E1
2.922700958E0,-1.668729858E0,-1.740400818E1,-5.613327026E-1,1.749283437E1
2.932669958E0,-9.542655945E-1,-1.430739761E1,-2.956501923E0,1.464080438E1
2.942637958E0,4.668791199E-1,-1.444391373E1,-3.569776611E0,1.488582967E1
2.952606958E0,1.929188232E0,-1.321916061E1,-3.052901459E0,1.370358281E1
2.962574958E0,2.799179077E0,-1.152303772E1,-1.924547882E0,1.201331288E1
2.972542958E0,2.426154785E0,-1.135134476E1,-7.464976501E-1,1.163170295E1
2.982511958E0,1.313668213E0,-1.093940140E1,-4.569996643E-1,1.102746915E1
2.992479958E0,7.932005310E-1,-9.980046387E0,-1.691482544E-2,1.001153230E1
3.002448958E0,1.176104279E0,-8.653355255E0,6.752458191E-1,8.758980270E0
3.012416958E0,2.101629639E0,-7.198081512E0,9.166937256E-1,7.554439224E0
3.022385958E0,3.110381927E0,-5.928272095E0,7.741900635E-1,6.739306791E0
3.032353958E0,3.599564667E0,-5.090464325E0,5.364843750E-1,6.257596049E0
3.042321958E0,3.643573151E0,-4.468208313E0,4.038601685E-1,5.779585960E0
3.052290958E0,3.410956879E0,-3.875141602E0,1.929487610E-1,5.166098962E0
3.062258958E0,2.785856781E0,-3.602857819E0,-1.333726501E-1,4.556245245E0
3.072227958E0,2.041005707E0,-3.696862335E0,-1.365161133E-1,4.225060008E0
3.082195958E0,1.301094360E0,-3.996389465E0,1.197509766E-3,4.202853403E0
3.092163958E0,6.553372192E-1,-4.036056976E0,2.526745605E-1,4.096714198E0
3.102132958E0,2.956352234E-1,-3.709136810E0,6.759942627E-1,3.781807016E0
3.112100958E0,-3.607498169E-1,-3.792962494E0,1.159189453E0,3.982514921E0
3.122069958E0,-1.066831512E0,-4.046535187E0,1.603615265E0,4.481535274E0
3.132037958E0,-1.576521606E0,-3.760929108E0,2.331252136E0,4.697312492E0
3.142005958E0,-2.489173737E0,-3.571872253E0,2.856509857E0,5.207101483E0
3.151974958E0,-3.557202759E0,-3.644321594E0,2.753074951E0,5.789144413E0
3.161942958E0,-4.280648346E0,-4.040397949E0,2.318827972E0,6.326589051E0
3.171911958E0,-4.207749939E0,-4.149371338E0,1.366059265E0,6.065357365E0
3.181879958E0,-2.900069275E0,-4.164040833E0,-7.574249268E-2,5.074975348E0
3.191848958E0,-1.000519409E0,-4.870122528E0,-2.071542206E0,5.386132159E0
3.201816958E0,1.163380737E0,-6.164331207E0,-4.392914886E0,7.658337625E0
3.211784958E0,3.641627197E0,-7.972570953E0,-7.168892212E0,1.132326595E1
3.221753958E0,6.536607056E0,-1.069091812E1,-1.273716293E1,1.786780014E1
3.231721958E0,1.124880798E1,-1.449959793E1,-2.278412018E1,2.925560038E1
3.241690958E0,1.949500992E1,-1.784843399E1,-1.973421249E1,3.298577194E1
3.251658958E0,2.546085388E1,-1.851649475E1,-6.565047913E0,3.215922126E1
3.261626958E0,2.259670990E1,-1.882410507E1,-3.492387543E0,2.961680268E1
3.271595958E0,1.214484467E1,-1.894759827E1,-3.435805206E0,2.276649928E1
3.281563958E0,4.374503174E0,-1.592957428E1,-3.966601410E0,1.698886522E1
3.291532958E0,3.563339996E0,-9.935888214E0,-2.857258301E0,1.093540998E1
3.301500958E0,3.471431122E0,-6.871610413E0,6.909631348E-1,7.729637362E0
3.311468958E0,5.861810303E-1,-6.927893372E0,3.628304901E0,7.842442937E0
3.321437958E0,-3.753744049E0,-8.182434540E0,4.250411224E0,9.955341529E0
3.331405958E0,-6.154451752E0,-1.056697586E1,2.703677673E0,1.252390227E1
3.341374958E0,-6.395899658E0,-1.434182602E1,1.760339355E0,1.580171828E1
3.351342958E0,-6.379433899E0,-1.931373688E1,6.831793213E-1,2.035151943E1
3.361310958E0,-5.843248901E0,-2.322195969E1,-3.905827789E0,2.426228473E1
3.371279958E0,-5.451064453E0,-2.479548752E1,-1.530327667E1,2.964322152E1
3.381247958E0,1.496887207E-4,-1.790606415E1,-7.449857941E0,1.939400723E1
3.391216958E0,4.854854279E0,-1.028900391E1,1.973945160E0,1.154684680E1
3.401184958E0,8.936416626E0,-5.882766724E0,6.845265198E0,1.270134410E1
3.411152958E0,9.426796875E0,-3.569028168E0,9.022487640E0,1.352803550E1
3.421121958E0,2.430346069E0,-6.475983124E0,6.586902466E0,9.551556079E0
3.431089958E0,-3.832779694E0,-9.259145508E0,3.677253113E0,1.067446327E1
3.441058958E0,-5.271587677E0,-9.314380646E0,1.645827484E0,1.082848427E1
3.451026958E0,-5.366041260E0,-9.460327148E0,1.109193420E-1,1.087678683E1
3.460995958E0,-5.083129578E0,-9.416019287E0,-6.973997498E-1,1.072315215E1
3.470963958E0,-4.025429077E0,-8.664132843E0,-8.912466431E-1,9.595081957E0
3.480931958E0,-3.010090485E0,-8.099806366E0,-8.349636841E-1,8.681282869E0
3.490900958E0,-2.038311310E0,-8.004604340E0,-5.888754272E-1,8.281013096E0
3.500868958E0,-8.309220886E-1,-8.359665985E0,-2.996768188E-1,8.406203251E0
3.510837958E0,6.798861694E-1,-9.458081818E0,6.271957397E-1,9.503206373E0
3.520805958E0,2.132914581E0,-1.051189041E1,2.016307068E0,1.091396623E1
3.530773958E0,3.361260223E0,-1.033720367E1,1.898202667E0,1.103444713E1
3.540742958E0,4.374203796E0,-9.320517883E0,9.080117798E-1,1.033586948E1
3.550710958E0,4.836592255E0,-8.142168274E0,3.462300110E-1,9.476676847E0
3.560679958E0,4.732109528E0,-6.838828583E0,2.453398132E-1,8.320013737E0
3.570647958E0,4.297413483E0,-5.686524811E0,3.614982605E-1,7.136876632E0
3.580615958E0,3.594175873E0,-5.034929810E0,5.098397827E-1,6.207137424E0
3.590584958E0,2.969075775E0,-4.890180817E0,7.530839539E-1,5.770304569E0
3.600552958E0,2.489024048E0,-5.226681061E0,1.139280853E0,5.900118345E0
3.610521958E0,2.371967468E0,-6.391858063E0,1.456171875E0,6.971550451E0
3.620489958E0,2.850671997E0,-8.233478394E0,1.828597412E0,8.902823473E0
3.630457958E0,3.348237305E0,-1.000414627E1,1.816322937E0,1.070479634E1
3.640426958E0,3.350332947E0,-1.087997498E1,1.179247742E0,1.144505184E1
3.650394958E0,3.147205353E0,-1.075857742E1,1.270857239E-1,1.121017576E1
3.660363958E0,3.333418121E0,-1.014979340E1,-7.984396362E-1,1.071295889E1
3.670331958E0,3.791465607E0,-9.480385437E0,-1.313368835E0,1.029455473E1
3.680299958E0,4.181404724E0,-8.944499817E0,-1.264570312E0,9.954263434E0
3.690268958E0,4.401896210E0,-8.655750275E0,-8.026309204E-1,9.743865735E0
3.700236958E0,4.505181427E0,-8.559650116E0,-8.369096375E-1,9.709000337E0
3.710205958E0,4.456382904E0,-8.441096649E0,-1.563348999E0,9.672410316E0
3.720173958E0,4.071682892E0,-8.224347382E0,-2.491718445E0,9.509319231E0
3.730141958E0,3.456911316E0,-8.125253448E0,-3.033142548E0,9.336483983E0
3.740110958E0,3.288212128E0,-8.220605164E0,-2.814447327E0,9.290414523E0
3.750078958E0,4.195325775E0,-8.502319336E0,-2.004331970E0,9.690590235E0
3.760047958E0,5.717510376E0,-8.846453705E0,-8.261320496E-1,1.056561225E1
3.770015958E0,7.056475983E0,-9.229207764E0,4.516108704E-1,1.162652492E1
3.779983958E0,8.220455475E0,-9.713600464E0,1.491348724E0,1.281226144E1
3.789952958E0,9.127120056E0,-1.001896545E1,2.289938049E0,1.374510115E1
3.799920958E0,9.713151398E0,-9.887987823E0,3.029999084E0,1.418797053E1
3.809889958E0,9.880353699E0,-9.430688782E0,3.276386719E0,1.404613790E1
3.819857958E0,9.575437775E0,-8.941206665E0,2.578986969E0,1.335235406E1
3.829825958E0,9.189540253E0,-8.487649841E0,1.294508057E0,1.257631110E1
3.839794958E0,9.331894226E0,-8.575217743E0,-2.562670898E-1,1.267613040E1
3.849762958E0,9.900262299E0,-9.218130798E0,-2.730322266E0,1.380013727E1
3.859731958E0,9.361532593E0,-9.870923309E0,-4.868475952E0,1.444906494E1
3.869699958E0,7.989635468E0,-9.852810974E0,-4.322261810E0,1.340127256E1
3.879667958E0,7.130272522E0,-9.216184845E0,-2.782114563E0,1.197994202E1
3.889636958E0,7.321275330E0,-9.098230133E0,-1.059646454E0,1.172611251E1
3.899604958E0,8.080646210E0,-1.035157379E1,4.300556946E-1,1.313913509E1
3.909573958E0,8.534951477E0,-1.285107605E1,1.748364258E0,1.552586004E1
3.919541333E0,8.277187500E0,-1.586880066E1,2.496658173E0,1.807108102E1
3.929509333E0,7.472760315E0,-1.913126633E1,2.933000793E0,2.074728878E1
3.939478333E0,5.785169678E0,-2.243205231E1,3.390449524E0,2.341282356E1
3.949446333E0,3.474125519E0,-2.501448212E1,3.952830048E0,2.556205643E1
3.959415333E0,1.078357544E0,-2.653367294E1,4.651427307E0,2.695986704E1
3.969383333E0,-2.206411743E-1,-2.602742569E1,3.775448914E0,2.630075256E1
3.979351333E0,1.300794983E-1,-2.269281006E1,1.409468994E0,2.273691166E1
3.989320333E0,1.328637085E0,-1.797761536E1,-7.572752380E-1,1.804254406E1
3.999288333E0,1.898502045E0,-1.332274521E1,-1.380279694E0,1.352793487E1
4.009257333E0,2.289788361E0,-9.409432983E0,-1.541195068E0,9.805908527E0
4.019225333E0,2.462080078E0,-6.740932159E0,-1.345701599E0,7.301569522E0
4.029193333E0,2.855462036E0,-5.400619354E0,-6.810836792E-2,6.109418270E0
4.039162333E0,3.421884155E0,-4.878056030E0,5.896238708E-1,5.987685539E0
4.049130333E0,4.141437836E0,-4.811893616E0,1.299298096E-1,6.350016478E0
4.059099333E0,4.870122528E0,-4.897216187E0,-6.637197876E-1,6.938396340E0
4.069067333E0,5.079686737E0,-4.949906616E0,-6.077362061E-1,7.118576835E0
4.079035333E0,4.908742218E0,-4.968917084E0,-1.407073975E-2,6.984703654E0
4.089004333E0,4.533771973E0,-4.951104126E0,5.405259705E-1,6.735034424E0
4.098972333E0,4.089944916E0,-4.697082367E0,1.079854431E0,6.321100993E0
4.108941333E0,3.504662018E0,-4.284540253E0,1.508712616E0,5.737260217E0
4.118909333E0,2.822380829E0,-3.755091248E0,1.712888031E0,5.000052922E0
4.128877333E0,2.022444305E0,-3.217858429E0,1.638043671E0,4.138608571E0
4.138846333E0,1.185534668E0,-2.845732269E0,1.451381836E0,3.407373450E0
4.148814333E0,3.809577942E-1,-2.694396973E0,1.437610474E0,3.077600975E0
4.158783333E0,-2.761756897E-1,-2.750679932E0,1.699116669E0,3.244920731E0
4.168751333E0,-9.232800293E-1,-2.902314606E0,2.099683685E0,3.699263124E0
4.178719333E0,-1.854643250E0,-2.935395813E0,2.326162720E0,4.179387893E0
4.188688333E0,-2.980152740E0,-2.818788300E0,2.486778717E0,4.796972610E0
4.198656333E0,-4.200564880E0,-2.727478180E0,2.776576080E0,5.726539729E0
4.208625333E0,-4.983436890E0,-2.808310089E0,3.067271576E0,6.490716733E0
4.218593333E0,-4.833897858E0,-2.971470795E0,2.561623077E0,6.225601977E0
4.228561333E0,-3.582500153E0,-3.185825043E0,7.562274170E-1,4.853418224E0
4.238530333E0,-1.255139923E0,-3.667972412E0,-1.563947754E0,4.180350514E0
4.248498333E0,1.476679230E0,-4.605772247E0,-4.366719360E0,6.516284026E0
4.258467333E0,4.190086670E0,-5.985303497E0,-8.931925964E0,1.153949677E1
4.268435333E0,9.233848114E0,-8.844507751E0,-1.757615021E1,2.173500229E1
4.278403333E0,1.914773209E1,-1.268252655E1,-1.847907257E1,2.947809775E1
4.288372333E0,2.614732635E1,-1.431353485E1,-1.764530640E0,2.986090293E1
4.298340333E0,2.802217758E1,-1.631966309E1,1.200204163E0,3.245018228E1
4.308309333E0,2.591905106E1,-1.761177612E1,-6.424340515E0,3.198818558E1
4.318277333E0,1.698353256E1,-1.563423843E1,-6.657405853E0,2.402479641E1
4.328245333E0,1.174951675E1,-1.125255020E1,-3.574566650E0,1.665678711E1
4.338214333E0,8.727002106E0,-8.269253998E0,3.984713745E-1,1.202912744E1
4.348182333E0,6.931635590E0,-9.951455841E0,3.223097534E0,1.254860164E1
4.358151333E0,7.002737732E0,-1.424752213E1,2.646496582E0,1.609453841E1
4.368119333E0,7.459887085E0,-1.858220810E1,-7.532336426E-1,2.003785752E1
4.378087333E0,5.938899994E0,-2.214958969E1,-6.673123169E0,2.388316205E1
4.388056333E0,2.445165253E0,-2.260673904E1,-6.730753326E0,2.371384667E1
4.398024333E0,-5.761518860E-1,-1.770413406E1,-2.996169434E0,1.796511467E1
4.407993333E0,-1.805545349E0,-1.199425781E1,-1.687590637E0,1.224623112E1
4.417961333E0,-1.623074799E0,-8.049810333E0,-1.100212097E-1,8.212546674E0
4.427929333E0,-1.332229614E0,-5.637127533E0,2.012864227E0,6.132182724E0
4.437898333E0,-1.000220032E0,-4.202660522E0,3.373534698E0,5.481198039E0
4.447866333E0,-8.186476135E-1,-3.374881897E0,3.680097198E0,5.059953273E0
4.457835333E0,-6.580316162E-1,-3.109184418E0,3.527414703E0,4.747914052E0
4.467803333E0,-4.143383789E-1,-3.339854736E0,3.205134888E0,4.647493475E0
4.477771333E0,-2.945874023E-1,-4.030817871E0,3.085084534E0,5.084488276E0
4.487740333E0,-1.531315613E-1,-5.287604370E0,2.918480988E0,6.041501512E0
4.497708333E0,2.230361938E-1,-6.860982513E0,2.760110321E0,7.398718482E0
4.507677333E0,1.069525909E0,-8.580307159E0,2.568808136E0,9.020217950E0
4.517645333E0,2.394720154E0,-1.029005173E1,2.339335327E0,1.082092135E1
4.527613333E0,4.109853516E0,-1.191477310E1,2.038311310E0,1.276743619E1
4.537582333E0,6.287974091E0,-1.307216629E1,2.165247345E0,1.466657580E1
4.547550333E0,8.120912476E0,-1.355506210E1,4.106859741E0,1.632651907E1
4.557519333E0,9.067394257E0,-1.277219009E1,4.073928223E0,1.618466464E1
4.567487333E0,9.270222473E0,-1.090392517E1,2.119592285E0,1.446807797E1
4.577455333E0,8.877439270E0,-8.891809387E0,5.619314575E-1,1.257731963E1
4.587424333E0,8.159382477E0,-7.123386841E0,-4.243675232E-1,1.083966099E1
4.597392333E0,7.202572174E0,-5.576653290E0,-6.948550415E-1,9.135585989E0
4.607360333E0,5.966442719E0,-4.327500916E0,-5.899232483E-1,7.394167453E0
4.617329333E0,4.787494354E0,-3.453468475E0,-6.318360901E-1,5.936814259E0
4.627297333E0,3.676205292E0,-3.107088776E0,-7.041357422E-1,4.864595888E0
4.637266333E0,2.940485229E0,-3.476819916E0,-7.818241882E-1,4.620170903E0
4.647234333E0,2.928510132E0,-4.395459595E0,-8.425978088E-1,5.348477139E0
4.657202333E0,3.344495087E0,-5.581892395E0,-9.865983582E-1,6.581530705E0
4.667171333E0,3.646117859E0,-6.909032593E0,-1.035546570E0,7.880435490E0
4.677139333E0,3.915258179E0,-7.944429474E0,-9.955796814E-1,8.912596994E0
4.687108333E0,3.851341095E0,-8.479716339E0,-8.924441528E-1,9.356007374E0
4.697076333E0,3.350033569E0,-8.734187164E0,-6.719526672E-1,9.378713703E0
4.707044333E0,2.668500824E0,-9.059161377E0,-5.432203674E-1,9.459618907E0
4.717013333E0,1.983674927E0,-9.323511658E0,-4.305047607E-1,9.541916484E0
4.726981333E0,1.517095184E0,-9.411678314E0,-3.914360046E-1,9.541199539E0
4.736950333E0,1.438209229E0,-9.419462128E0,-6.490502930E-1,9.550705672E0
4.746918333E0,1.787582703E0,-9.246122589E0,-1.088686066E0,9.480056551E0
4.756886333E0,2.920426941E0,-8.821455688E0,-9.967771912E-1,9.345616018E0
4.766855333E0,4.583019562E0,-8.383915558E0,-5.044509888E-2,9.554928210E0
4.776823333E0,5.813460846E0,-8.209528198E0,1.184935913E0,1.012900555E1
4.786792333E0,6.724616089E0,-8.315657501E0,2.216291199E0,1.092165591E1
4.796760333E0,7.645201721E0,-8.597072296E0,2.938988342E0,1.187419108E1
4.806728333E0,8.763526154E0,-8.764573975E0,3.263214111E0,1.281661866E1
4.816697333E0,1.002121078E1,-8.607550507E0,3.208128662E0,1.359436210E1
4.826665333E0,1.121258331E1,-8.065377960E0,2.839595032E0,1.410090941E1
4.836633333E0,1.213780930E1,-7.253765717E0,2.060315552E0,1.428945176E1
4.846602333E0,1.250260071E1,-6.432124329E0,7.086264038E-1,1.407797568E1
4.856570333E0,1.214125214E1,-5.769602051E0,-6.777905273E-1,1.345948406E1
4.866539333E0,1.169682632E1,-5.569019165E0,-1.660646667E0,1.306091375E1
4.876507333E0,1.223825043E1,-5.868995361E0,-2.115550690E0,1.373664569E1
4.886475333E0,1.282503021E1,-6.486461334E0,-1.636995850E0,1.446496927E1
4.896444333E0,1.196746353E1,-6.811136169E0,-9.900411987E-1,1.380550401E1
4.906412333E0,1.009261230E1,-6.798113251E0,-4.870870972E-1,1.217835870E1
4.916381333E0,9.355545044E0,-6.978488159E0,4.599934387E-1,1.168062986E1
4.926349458E0,9.446705475E0,-8.011340332E0,9.187893677E-1,1.242038615E1
4.936317458E0,9.635013885E0,-1.032178574E1,7.207511902E-1,1.413832506E1
4.946286458E0,9.711953888E0,-1.352497467E1,5.372328186E-1,1.665939997E1
4.956254458E0,9.078022156E0,-1.709684692E1,1.303339691E0,1.940132355E1
4.966223458E0,7.684420166E0,-2.062530945E1,3.173849945E0,2.223796363E1
4.976191458E0,5.986800385E0,-2.347463425E1,4.419709167E0,2.462588193E1
4.986159458E0,4.774770813E0,-2.495700165E1,4.011957092E0,2.572442744E1
4.996128458E0,4.542154541E0,-2.423879517E1,1.920206909E0,2.473535028E1
5.006096458E0,4.628524933E0,-2.149664749E1,-3.448828125E-1,2.199199947E1
5.016065458E0,4.289330292E0,-1.790471695E1,-1.399739227E0,1.846446623E1
5.026033458E0,3.823049927E0,-1.455153992E1,-1.137334900E0,1.508829200E1
5.036001458E0,3.146905975E0,-1.130464188E1,-2.071691895E-1,1.173630539E1
5.045970458E0,2.809357910E0,-8.461154938E0,3.631448364E-1,8.922752318E0
5.055938458E0,2.603835297E0,-6.765032043E0,6.755451965E-1,7.280245745E0
5.065906458E0,3.213517456E0,-6.242768097E0,5.330415344E-1,7.041518390E0
5.075875458E0,4.072880402E0,-6.161487122E0,-2.507286072E-1,7.390205894E0
5.085843458E0,5.035827942E0,-5.872737579E0,-9.621990967E-1,7.795796100E0
5.095812458E0,5.057083740E0,-5.724845123E0,-8.647517395E-1,7.687375574E0
5.105780458E0,4.509522400E0,-5.648503876E0,-1.700463867E-1,7.229820474E0
5.115748458E0,4.170926514E0,-5.363795929E0,4.320016479E-1,6.808344892E0
5.125717458E0,3.741918640E0,-5.063370667E0,4.598437500E-1,6.312775451E0
5.135685458E0,3.336561584E0,-4.705015869E0,3.174897766E-1,5.776730675E0
5.145654458E0,2.808609467E0,-4.580175476E0,3.947291565E-1,5.387216873E0
5.155622458E0,2.351909180E0,-4.530329132E0,6.174659729E-1,5.141655673E0
5.165590458E0,1.868115234E0,-4.486919403E0,8.545729065E-1,4.934834862E0
5.175559458E0,1.288370819E0,-4.393064575E0,9.928852844E-1,4.684520991E0
5.185527458E0,6.475534058E-1,-4.138144684E0,9.876461792E-1,4.303372144E0
5.195496458E0,-1.975891113E-2,-3.788771210E0,1.140478363E0,3.956749751E0
5.205464458E0,-8.153544617E-1,-3.412603455E0,1.502874756E0,3.816974950E0
5.215432458E0,-1.704355774E0,-3.027604065E0,1.859133911E0,3.940506805E0
5.225401458E0,-2.727627869E0,-2.755769348E0,2.154170380E0,4.435613657E0
5.235369458E0,-3.675606537E0,-2.657723236E0,2.431543579E0,5.146453185E0
5.245337458E0,-3.851490784E0,-2.691403198E0,2.343227234E0,5.250556761E0
5.255306458E0,-3.024460602E0,-2.795885925E0,1.091230774E0,4.260883082E0
5.265274458E0,-1.425036621E0,-3.103346558E0,-8.843609619E-1,3.527546391E0
5.275243458E0,7.851173401E-1,-3.580703888E0,-3.213367767E0,4.874790455E0
5.285211458E0,3.435356140E0,-4.219725037E0,-6.489305420E0,8.468697422E0
5.295179458E0,7.276069336E0,-5.333409119E0,-1.298280212E1,1.580947782E1
5.305148458E0,1.477382767E1,-6.978637848E0,-1.781699936E1,2.417463208E1
5.315116458E0,2.429837128E1,-8.175249481E0,-8.175099792E0,2.690869390E1
5.325085458E0,3.076791779E1,-1.102846619E1,4.075574799E0,3.293785271E1
5.335053458E0,3.425731155E1,-1.464060471E1,-2.046544189E0,3.731084352E1
5.345021458E0,2.518138504E1,-1.680600174E1,-8.915909271E0,3.156005838E1
5.354990458E0,1.325703186E1,-1.317859497E1,-5.633385315E0,1.952330119E1
5.364958458E0,9.459578705E0,-7.565118256E0,-2.000290375E0,1.227663655E1
5.374926458E0,6.487060089E0,-6.974596252E0,5.897735596E-1,9.543310450E0
5.384895458E0,5.354365540E0,-1.330343536E1,1.530866547E0,1.442200316E1
5.394863458E0,5.599106598E0,-1.943648163E1,-1.760489044E0,2.030335279E1
5.404832458E0,3.933819580E0,-2.321357712E1,-8.879385223E0,2.516323868E1
5.414800458E0,1.717528381E0,-2.409748901E1,-6.968459015E0,2.514355388E1
5.424768458E0,1.097218323E0,-1.953153397E1,3.727249146E-2,1.956236428E1
5.434737458E0,5.646258545E-1,-1.399829041E1,1.828747101E0,1.412852620E1
5.444705458E0,-1.429527283E-1,-9.557924194E0,3.347937927E0,1.012832853E1
5.454674458E0,-2.877017212E-1,-6.406377869E0,4.846621399E0,8.038295134E0
5.464642458E0,-3.016227722E-1,-4.372706909E0,5.141059113E0,6.755888602E0
5.474610458E0,-3.597019958E-1,-3.319347382E0,4.860692139E0,5.896929763E0
5.484579458E0,-4.643344116E-1,-3.074756012E0,4.533771973E0,5.497710367E0
5.494547458E0,-3.126997375E-1,-3.791465607E0,4.031117249E0,5.542824086E0
5.504515458E0,-2.151026917E-1,-5.361849976E0,3.085383911E0,6.189935235E0
5.514484458E0,-2.474354553E-1,-7.066804504E0,2.164648590E0,7.395042510E0
5.524452458E0,1.203497314E-1,-8.759484558E0,1.702260132E0,8.924166255E0
5.534421458E0,1.182540894E0,-1.049287994E1,1.478475494E0,1.066230849E1
5.544389458E0,2.459385681E0,-1.205398361E1,1.448687439E0,1.238732393E1
5.554357458E0,3.847000122E0,-1.326646225E1,1.560654602E0,1.390086592E1
5.564326458E0,5.474116516E0,-1.393961243E1,2.633922729E0,1.520579808E1
5.574294458E0,6.891069946E0,-1.376043503E1,4.135450287E0,1.593544371E1
5.584263458E0,7.608378296E0,-1.255514145E1,3.015778656E0,1.498712507E1
5.594231458E0,7.632029114E0,-1.085497696E1,1.336570587E0,1.333659680E1
5.604199458E0,7.178621979E0,-9.089248810E0,8.876541138E-2,1.158252722E1
5.614168458E0,6.384373627E0,-7.383845215E0,-5.528004456E-1,9.776859674E0
5.624136458E0,5.385201416E0,-5.858666840E0,-7.707472229E-1,7.994899794E0
5.634104458E0,4.576582947E0,-4.615801392E0,-8.017327881E-1,6.549313660E0
5.644073458E0,3.742367706E0,-3.606450348E0,-9.654922485E-1,5.286206148E0
5.654041458E0,3.011737061E0,-3.114573212E0,-1.286873932E0,4.519642788E0
5.664010458E0,2.834355927E0,-3.454965363E0,-1.388063507E0,4.679431533E0
5.673978458E0,3.639082489E0,-4.521497498E0,-1.031804352E0,5.895038694E0
5.683946458E0,4.502037964E0,-5.626649323E0,-4.337979126E-1,7.219121072E0
5.693915458E0,5.024451599E0,-6.520740051E0,2.814147949E-2,8.232008056E0
5.703883458E0,5.161716156E0,-7.237599335E0,2.908451843E-1,8.894422338E0
5.713851458E0,4.876559143E0,-7.910450134E0,5.846841431E-1,9.311171030E0
5.723820458E0,4.486620026E0,-8.665030975E0,8.337661743E-1,9.793247015E0
5.733788458E0,4.098177795E0,-9.132658539E0,9.071136475E-1,1.005103818E1
5.743757458E0,3.382216644E0,-9.073830872E0,1.024170227E0,9.737695865E0
5.753725458E0,2.640958099E0,-8.895252228E0,8.283773804E-1,9.315920833E0
5.763693458E0,2.390828247E0,-9.173074493E0,-1.769320679E-1,9.481173995E0
5.773662458E0,2.188898163E0,-9.608219604E0,-1.911075897E0,1.003799632E1
5.783630458E0,2.121388550E0,-9.795330505E0,-3.588338013E0,1.064541962E1
5.793599458E0,2.862497406E0,-9.456884308E0,-4.021686859E0,1.066773253E1
5.803567458E0,4.833149414E0,-8.692573700E0,-2.086211700E0,1.016230535E1
5.813535458E0,6.635551300E0,-8.065078583E0,2.224374390E-1,1.044631571E1
5.823504458E0,7.748187561E0,-7.999814301E0,1.711989899E0,1.126775704E1
5.833472458E0,8.700656891E0,-8.244555359E0,2.521356812E0,1.224872906E1
5.843440458E0,9.507329407E0,-8.413104858E0,2.746189270E0,1.298888761E1
5.853409458E0,1.038929535E1,-8.407117310E0,2.648891602E0,1.362474609E1
5.863377458E0,1.128413452E1,-8.000712433E0,2.420167236E0,1.404280245E1
5.873346458E0,1.171014862E1,-7.143894196E0,2.136656799E0,1.388265491E1
5.883314458E0,1.145118713E1,-5.986950073E0,1.746418304E0,1.303929580E1
5.893282458E0,1.067085983E1,-5.001549225E0,9.256750488E-1,1.182115132E1
5.903251458E0,1.021924896E1,-4.958738251E0,-1.664538574E-1,1.136001062E1
5.913219458E0,1.127230911E1,-5.751340027E0,-1.151705017E0,1.270705667E1
5.923187958E0,1.285826111E1,-6.779701538E0,-1.789678345E0,1.464589295E1
5.933156958E0,1.266246826E1,-7.543413391E0,-1.279988251E0,1.479457867E1
5.943124958E0,1.111872849E1,-7.700736237E0,-4.230203247E-1,1.353168164E1
5.953093958E0,1.062251038E1,-8.092172241E0,3.577560425E-2,1.335373574E1
5.963061958E0,1.157842255E1,-9.878258057E0,9.894424438E-2,1.522004076E1
5.973029958E0,1.117231705E1,-1.247505798E1,7.065307617E-2,1.674672302E1
5.982998958E0,9.549092560E0,-1.541479477E1,3.999682617E-1,1.813728318E1
5.992966958E0,8.009544067E0,-1.868908585E1,1.355880432E0,2.037825159E1
6.002934958E0,6.467899933E0,-2.180291061E1,3.009940796E0,2.294036583E1
6.012903958E0,4.966222687E0,-2.377550858E1,4.391268311E0,2.468241101E1
6.022871958E0,3.926933899E0,-2.437321564E1,4.568350067E0,2.510665794E1
6.032840958E0,3.338657227E0,-2.349798569E1,3.487148438E0,2.398879254E1
6.042808958E0,3.200045471E0,-2.128558640E1,1.539847870E0,2.157979635E1
6.052776958E0,4.073179779E0,-1.806578201E1,-4.965174866E-1,1.852592246E1
6.062745958E0,5.025200043E0,-1.413750092E1,-1.763931885E0,1.510738307E1
6.072713958E0,5.060676270E0,-1.048719177E1,-2.079625397E0,1.182862956E1
6.082682958E0,5.468278656E0,-7.651338959E0,-1.330433350E0,9.498163624E0
6.092650958E0,4.902455292E0,-6.393804016E0,-7.767347717E-1,8.094326074E0
6.102618958E0,3.691174164E0,-6.365961914E0,-4.251159668E-1,7.370953899E0
6.112587958E0,3.326532440E0,-6.634503479E0,-2.489323425E-1,7.425929019E0
6.122555958E0,3.507206726E0,-6.660848694E0,-1.224453735E-1,7.528771295E0
6.132523958E0,3.342399445E0,-6.442452850E0,9.864486694E-2,7.258551067E0
6.142492958E0,3.203787689E0,-5.774691467E0,2.848576355E-1,6.610027305E0
6.152460958E0,2.816992035E0,-5.158872070E0,2.198927307E-1,5.881985887E0
6.162429958E0,2.422262878E0,-4.561763763E0,3.385958862E-1,5.176069287E0
6.172397958E0,2.326761475E0,-3.763473816E0,6.285429382E-1,4.469073768E0
6.182365958E0,2.070494385E0,-3.177143097E0,8.734336853E-1,3.891538469E0
6.192334958E0,1.197659454E0,-3.026107178E0,8.893006897E-1,3.373806239E0
6.202302958E0,2.329156494E-1,-3.041225739E0,7.969427490E-1,3.152526199E0
6.212270958E0,-2.662962341E-1,-3.105891266E0,6.744973755E-1,3.189423294E0
6.222239958E0,-3.549119568E-1,-3.003653870E0,7.707472229E-1,3.121209757E0
6.232207958E0,-5.760021973E-1,-2.826871490E0,1.073717194E0,3.078286791E0
6.242176958E0,-1.217867432E0,-2.670895844E0,1.465153198E0,3.280786427E0
6.252144958E0,-2.086810455E0,-2.490670624E0,1.909728699E0,3.768989485E0
6.262112958E0,-2.960094452E0,-2.401156769E0,2.471660156E0,4.542776345E0
6.272081958E0,-3.546874237E0,-2.555336151E0,2.899470520E0,5.245663828E0
6.282049958E0,-3.473077698E0,-2.987936554E0,2.698288879E0,5.317028909E0
6.292018958E0,-2.565964050E0,-3.745660858E0,1.314117279E0,4.726632099E0
6.301986958E0,-8.864566040E-1,-4.789739685E0,-6.393205261E-1,4.912854801E0
6.311954958E0,1.510808258E0,-5.633984070E0,-2.831661530E0,6.484028463E0
6.321923958E0,4.077820129E0,-6.570137329E0,-6.311325531E0,9.981390258E0
6.331891958E0,7.910899200E0,-8.275241547E0,-1.225666214E1,1.677163426E1
6.341860958E0,1.532602936E1,-1.064526306E1,-1.773826309E1,2.574596627E1
6.351828958E0,2.496074387E1,-1.077863571E1,-1.280048126E1,3.005112382E1
6.361796958E0,3.017964111E1,-1.145148651E1,5.553451538E-2,3.227925596E1
6.371765958E0,3.065535187E1,-1.379157028E1,-7.381150818E-1,3.362295083E1
6.381733958E0,2.222712845E1,-1.498399063E1,-6.655459900E0,2.761992688E1
6.391701958E0,1.390698029E1,-1.161764099E1,-6.321354675E0,1.919200896E1
6.401670958E0,1.109058701E1,-5.378016357E0,-3.469185791E0,1.280466439E1
6.411638958E0,7.848329315E0,-2.103874969E0,9.925859070E-1,8.185828590E0
6.421607958E0,4.678221588E0,-4.918022919E0,3.225941620E0,7.515278171E0
6.431575958E0,4.442461853E0,-1.130464188E1,3.124003601E0,1.254152278E1
6.441543958E0,4.759652252E0,-1.514041534E1,1.513802032E0,1.594296280E1
6.451512958E0,4.280348969E0,-1.860795456E1,-2.701731720E0,1.928410523E1
6.461480958E0,2.580932922E0,-2.316807175E1,-8.428223419E0,2.478821723E1
6.471449958E0,2.028431854E0,-2.368584503E1,-7.567662964E0,2.494801221E1
6.481417958E0,3.868704987E0,-1.825154572E1,-3.180436249E0,1.892619809E1
6.491385958E0,4.326902161E0,-1.214334778E1,7.098239136E-1,1.291072529E1
6.501354958E0,2.899021454E0,-7.904911652E0,2.780467987E0,8.866958658E0
6.511322958E0,7.783813477E-1,-5.665867767E0,4.104315033E0,7.039413113E0
6.521290958E0,-6.870712280E-1,-4.336332550E0,4.214934998E0,6.086174816E0
6.531259958E0,-1.374142456E0,-3.536396027E0,3.812122650E0,5.378349509E0
6.541227958E0,-1.414259033E0,-3.048111420E0,3.473377075E0,4.832748715E0
6.551196958E0,-9.313632202E-1,-3.085982666E0,3.128045197E0,4.491702708E0
6.561164958E0,-3.149450684E-1,-3.956721954E0,2.269281006E0,4.572141217E0
6.571132958E0,4.924758911E-2,-5.469326477E0,1.376836853E0,5.640180596E0
6.581101958E0,7.024891663E-1,-7.274273071E0,1.033899994E0,7.380886731E0
6.591069958E0,1.835782471E0,-9.214238892E0,1.273701324E0,9.481276849E0
6.601038958E0,3.332370300E0,-1.111887817E1,1.773362274E0,1.174218708E1
6.611006958E0,5.133724365E0,-1.275497589E1,2.220931549E0,1.392756521E1
6.620974958E0,7.102280731E0,-1.393033173E1,3.817361755E0,1.609561382E1
6.630943958E0,8.644523621E0,-1.412732208E1,5.611381073E0,1.748704136E1
6.640911958E0,9.102421417E0,-1.252475464E1,4.041595459E0,1.600181391E1
6.650880958E0,8.722960510E0,-1.034932846E1,1.669478302E0,1.363766100E1
6.660848958E0,7.733368378E0,-8.482111359E0,1.797761536E-1,1.147970030E1
6.670816958E0,6.261329498E0,-6.718927917E0,-5.478607178E-2,9.184293166E0
6.680785958E0,5.168152771E0,-5.189558258E0,7.170089722E-2,7.324374308E0
6.690753958E0,4.708907776E0,-4.187541962E0,-2.109114075E-1,6.305061756E0
6.700721958E0,4.052073669E0,-3.344345398E0,-2.276765442E-1,5.258876664E0
6.710690958E0,3.435056763E0,-3.050955505E0,-3.858975220E-1,4.610516387E0
6.720658958E0,3.255280609E0,-3.749103699E0,-6.170169067E-1,5.003332914E0
6.730627958E0,3.782484283E0,-5.078638916E0,-8.529263306E-1,6.389620014E0
6.740595958E0,4.315675507E0,-6.349645844E0,-1.044527893E0,7.748167263E0
6.750563958E0,4.294868774E0,-7.202572174E0,-1.151854706E0,8.464615347E0
6.760532958E0,4.104764099E0,-8.007598114E0,-1.174757080E0,9.074732506E0
6.770500958E0,4.072730713E0,-8.822503510E0,-1.171763306E0,9.787580543E0
6.780469958E0,4.012406158E0,-9.512269135E0,-1.141526184E0,1.038680650E1
6.790437958E0,3.720064087E0,-9.856253815E0,-1.029708710E0,1.058512712E1
6.800405958E0,3.117566986E0,-9.606573029E0,-7.433541870E-1,1.012709458E1
6.810374958E0,2.783162384E0,-9.008267212E0,-5.104385376E-1,9.442214704E0
6.820342958E0,2.872526550E0,-8.397836609E0,-4.607418823E-1,8.887482859E0
6.830310958E0,3.465443573E0,-7.831713867E0,-4.445755005E-1,8.575703390E0
6.840279958E0,4.906796265E0,-7.228767700E0,-4.655319214E-2,8.736927334E0
6.850247958E0,6.506369934E0,-6.918013916E0,5.046006775E-1,9.510330599E0
6.860216958E0,7.338339844E0,-6.759343872E0,7.515870667E-1,1.000524084E1
6.870184958E0,7.933502197E0,-6.763235779E0,8.424481201E-1,1.045904079E1
6.880152958E0,8.595276031E0,-7.046596527E0,9.741741943E-1,1.115716398E1
6.890121958E0,9.371262360E0,-7.513775024E0,1.295705566E0,1.208123447E1
6.900089958E0,1.016581009E1,-7.873926086E0,1.886077881E0,1.299614160E1
6.910058958E0,1.095945969E1,-7.896229706E0,2.495460663E0,1.373635775E1
6.920026958E0,1.136511612E1,-7.662864990E0,2.723885651E0,1.397515357E1
6.929994708E0,1.105795486E1,-7.191794586E0,2.487676849E0,1.342344260E1
6.939963708E0,1.030591873E1,-6.692433014E0,1.754052429E0,1.241278859E1
6.949931708E0,9.926008759E0,-6.584657135E0,5.210664368E-1,1.192287170E1
6.959899708E0,1.141526184E1,-7.191195831E0,-1.285526733E0,1.355264105E1
6.969868708E0,1.314027466E1,-8.073461151E0,-3.332819366E0,1.577831670E1
6.979836708E0,1.189276886E1,-8.083340607E0,-3.650907898E0,1.483601951E1
6.989805708E0,9.266779633E0,-7.232210541E0,-1.603016510E0,1.186371510E1
6.999773708E0,8.275989990E0,-6.599176941E0,2.466870117E-1,1.058782325E1
7.009741708E0,8.470735016E0,-7.064858551E0,1.123413849E0,1.108727364E1
7.019710708E0,9.108259277E0,-9.104666748E0,1.204994202E0,1.293473443E1
7.029678708E0,9.576485596E0,-1.230860413E1,1.238225098E0,1.564429651E1
7.039647708E0,9.509874115E0,-1.574680435E1,1.764231262E0,1.848004505E1
7.049615708E0,9.081315308E0,-1.911959061E1,2.757116547E0,2.134550829E1
7.059583708E0,7.967331848E0,-2.234463409E1,4.177662506E0,2.408762989E1
7.069552708E0,6.552923126E0,-2.481719238E1,5.049898682E0,2.615980344E1
7.079520708E0,5.741610260E0,-2.543166458E1,4.183350677E0,2.640522817E1
7.089488708E0,5.380860443E0,-2.373599075E1,2.167492676E0,2.443458493E1
7.099457708E0,4.668641510E0,-2.033027298E1,5.821394348E-1,2.086756093E1
7.109425708E0,4.165837097E0,-1.615036514E1,-1.863624573E-1,1.668002470E1
7.119394708E0,4.397405548E0,-1.177032349E1,-1.244811401E0,1.262645025E1
7.129362708E0,5.385949860E0,-7.689210205E0,-1.742227020E0,9.548181212E0
7.139330708E0,6.193071442E0,-5.462440796E0,-1.602717133E0,8.411961456E0
7.149299708E0,5.393733673E0,-5.742358704E0,-1.188977509E0,7.967478518E0
7.159267708E0,4.075874176E0,-6.754703522E0,-1.060544586E0,7.960120903E0
7.169235708E0,3.689377899E0,-7.199279022E0,-6.033952332E-1,8.112041268E0
7.179204708E0,3.521427155E0,-6.758146362E0,1.264869690E-1,7.621613373E0
7.189172708E0,3.724255371E0,-5.562283173E0,6.066883850E-1,6.721394421E0
7.199141708E0,3.544479218E0,-4.783003693E0,6.912625122E-1,5.993187892E0
7.209109708E0,2.630928955E0,-4.566104736E0,6.643185425E-1,5.311536384E0
7.219077708E0,1.808688812E0,-4.314328308E0,8.411009216E-1,4.753128941E0
7.229046708E0,1.469494171E0,-3.659140778E0,1.029858398E0,4.075454903E0
7.239014708E0,1.189875641E0,-3.064277802E0,1.108444977E0,3.469042051E0
7.248983708E0,5.908213806E-1,-2.952610016E0,9.782157898E-1,3.166051475E0
7.258951708E0,-9.430389404E-3,-3.247646484E0,9.134005737E-1,3.373662287E0
7.268919708E0,-4.059558105E-1,-3.657793579E0,1.062191162E0,3.830470474E0
7.278888708E0,-4.168830872E-1,-3.731889496E0,1.441801758E0,4.022385241E0
7.288856708E0,-6.313870239E-1,-3.764970703E0,1.880988464E0,4.255792708E0
7.298824708E0,-1.202748871E0,-3.767216034E0,2.366878052E0,4.608756145E0
7.308793708E0,-1.933529205E0,-3.567231903E0,2.832709351E0,4.948527145E0
7.318761708E0,-2.956651611E0,-3.479364624E0,3.295546875E0,5.631020879E0
7.328730708E0,-3.878883820E0,-3.714375916E0,3.575165405E0,6.451676976E0
7.338698708E0,-3.860472107E0,-4.126468964E0,2.858156433E0,6.332459964E0
7.348666708E0,-2.898273010E0,-4.658312988E0,8.515791321E-1,5.552031462E0
7.358635708E0,-8.211923218E-1,-5.164410553E0,-1.718875580E0,5.504545980E0
7.368603708E0,2.067799988E0,-5.516179047E0,-4.478536835E0,7.400089205E0
7.378571708E0,5.054988098E0,-6.110742645E0,-9.158404999E0,1.211488599E1
7.388540708E0,1.003842499E1,-8.000562744E0,-2.012430130E1,2.386978180E1
7.398508708E0,2.047142944E1,-9.684710541E0,-2.150682632E1,3.123166054E1
7.408477708E0,2.899934555E1,-8.588989105E0,-2.984942780E0,3.039148992E1
7.418445708E0,3.206107864E1,-9.752669220E0,8.433013458E0,3.455637476E1
7.428413708E0,3.161111435E1,-1.176688065E1,-1.950743408E0,3.378649775E1
7.438382708E0,2.048849396E1,-1.202045334E1,-8.027357025E0,2.507405320E1
7.448350708E0,1.251322861E1,-8.460855560E0,-5.109774170E0,1.594605779E1
7.458318708E0,9.626781006E0,-3.725752258E0,-4.969665527E-2,1.032272310E1
7.468287708E0,6.874454498E0,-3.159928894E0,4.011657715E0,8.563683371E0
7.478255708E0,6.099665680E0,-9.108408966E0,4.046086121E0,1.168502667E1
7.488224708E0,6.529272308E0,-1.506557098E1,1.396895142E0,1.647889990E1
7.498192708E0,5.611231384E0,-1.884536087E1,-4.119433594E0,2.008987997E1
7.508160708E0,3.378025360E0,-2.342673386E1,-1.225920685E1,2.665541347E1
7.518129708E0,2.067650299E0,-2.452859253E1,-7.807464294E0,2.582408813E1
7.528097708E0,3.192561035E0,-1.960458206E1,-1.626817017E0,1.992934062E1
7.538065708E0,2.942880249E0,-1.395503036E1,9.666897583E-1,1.429468103E1
7.548034708E0,2.069147186E0,-9.508077850E0,2.828518066E0,1.013338191E1
7.558002708E0,9.051676941E-1,-6.698719940E0,4.311783600E0,8.017708850E0
7.567971708E0,-3.282673645E-1,-5.119354248E0,4.701423340E0,6.958371131E0
7.577939708E0,-1.247805176E0,-4.256398773E0,4.171375580E0,6.088868737E0
7.587907708E0,-1.499132538E0,-3.859124908E0,3.433110809E0,5.378335547E0
7.597876708E0,-1.250948639E0,-4.064198456E0,2.587519226E0,4.977734156E0
7.607844708E0,-9.099577332E-1,-4.872517548E0,1.810036011E0,5.276900671E0
7.617812708E0,-6.459068298E-1,-6.272256775E0,1.280137939E0,6.434062001E0
7.627781708E0,-4.334985352E-1,-7.910150757E0,1.196611633E0,8.011884009E0
7.637749708E0,2.119592285E-1,-9.777367859E0,1.472787323E0,9.889941934E0
7.647718708E0,1.493743744E0,-1.168036057E1,1.759141846E0,1.190616115E1
7.657686708E0,3.297642517E0,-1.312785049E1,2.031874695E0,1.368734523E1
7.667654708E0,5.332960052E0,-1.386342087E1,2.600691833E0,1.507973803E1
7.677623708E0,6.946903839E0,-1.374696304E1,4.217180328E0,1.596944194E1
7.687591708E0,7.974367218E0,-1.241652969E1,4.639901276E0,1.546898271E1
7.697559708E0,8.306227112E0,-1.051608170E1,3.228636017E0,1.378424730E1
7.707528708E0,7.721393280E0,-8.774004364E0,1.682052155E0,1.180814830E1
7.717496708E0,6.709796906E0,-7.146588593E0,1.343456268E0,9.894441761E0
7.727464708E0,6.580465851E0,-5.663023682E0,4.812492371E-1,8.695054276E0
7.737433708E0,6.372847595E0,-4.553830261E0,1.836680603E-1,7.834812728E0
7.747401708E0,5.777685242E0,-3.696712646E0,4.040098572E-1,6.870993750E0
7.757370708E0,5.131778412E0,-3.198698273E0,4.921765137E-1,6.067046895E0
7.767338708E0,4.678970032E0,-3.136727142E0,4.161346436E-2,5.633253891E0
7.777306708E0,4.372407532E0,-3.665427704E0,-5.718109131E-1,5.734132506E0
7.787275708E0,4.320016479E0,-4.658312988E0,-1.153052216E0,6.456930516E0
7.797243708E0,4.589456177E0,-5.929918671E0,-1.559008026E0,7.658821676E0
7.807211708E0,4.962480469E0,-7.202123108E0,-1.712438965E0,8.912308168E0
7.817180708E0,5.159770203E0,-8.199798431E0,-1.594184875E0,9.818418828E0
7.827148708E0,5.167254639E0,-8.912167053E0,-1.184037781E0,1.036962813E1
7.837117708E0,4.982389069E0,-9.233249359E0,-6.189628601E-1,1.051000521E1
7.847085708E0,4.488266602E0,-9.101822662E0,-1.134640503E-1,1.014892048E1
7.857053708E0,3.964356079E0,-8.454568634E0,2.414479065E-1,9.340992827E0
7.867022708E0,3.893253937E0,-7.641010437E0,3.574566650E-1,8.583137071E0
7.876990708E0,4.036206665E0,-7.109465790E0,4.787045288E-1,8.189299487E0
7.886958708E0,4.674030304E0,-7.134164429E0,4.787045288E-1,8.542366148E0
7.896927708E0,5.754633179E0,-7.373516693E0,4.445755005E-1,9.363877339E0
7.906895708E0,6.796017609E0,-7.365882568E0,5.212161255E-1,1.003562393E1
7.916863708E0,7.705077209E0,-7.173682251E0,5.498066711E-1,1.054192673E1
7.926832875E0,8.695118408E0,-7.094796295E0,4.321513367E-1,1.123067110E1
7.936800875E0,9.608818359E0,-7.347021790E0,2.842588806E-1,1.209912900E1
7.946769875E0,1.015518219E1,-7.744295654E0,3.379971313E-1,1.277560498E1
7.956737875E0,1.033959869E1,-8.034093018E0,7.358697510E-1,1.311470381E1
7.966705875E0,1.044887146E1,-7.878267059E0,1.251098328E0,1.314576942E1
7.976674875E0,1.045231430E1,-7.243586884E0,1.647923126E0,1.282326307E1
7.986642875E0,1.021909927E1,-6.495442657E0,1.661694489E0,1.222219268E1
7.996610875E0,9.884245605E0,-5.953270111E0,1.175655212E0,1.159835770E1
8.006579875E0,1.016655853E1,-5.908363495E0,2.731819153E-1,1.176190035E1
8.016547875E0,1.169607788E1,-6.429579620E0,-1.361418915E0,1.341607966E1
8.026516875E0,1.249302063E1,-6.859485626E0,-3.049907684E0,1.457498008E1
8.036484875E0,1.119941071E1,-6.547534332E0,-2.580633545E0,1.322711894E1
8.046452875E0,9.345815277E0,-6.013894043E0,-1.106948090E0,1.116855044E1
8.056421875E0,8.428373108E0,-5.906267853E0,7.244934082E-2,1.029207084E1
8.066389875E0,8.377179565E0,-6.764732666E0,9.647438049E-1,1.081061867E1
8.076357875E0,8.900341644E0,-8.976533203E0,1.108444977E0,1.268947911E1
8.086326875E0,9.882000275E0,-1.222028778E1,1.031355286E0,1.574970021E1
8.096294875E0,1.061682220E1,-1.587448883E1,1.834135895E0,1.918542061E1
8.106262875E0,1.055949142E1,-1.960443237E1,3.243604889E0,2.250239099E1
8.116231875E0,9.949659576E0,-2.312256638E1,4.406686249E0,2.555518901E1
8.126199875E0,8.803642731E0,-2.553045914E1,4.881349182E0,2.744332412E1
8.136168875E0,7.471862183E0,-2.602398285E1,3.820056152E0,2.734354104E1
8.146136875E0,6.270909576E0,-2.404988800E1,2.269430695E0,2.495739841E1
8.156104875E0,5.107977905E0,-2.007640091E1,1.249002686E0,2.075363389E1
8.166073875E0,4.830005951E0,-1.509386215E1,-1.044078827E0,1.588218287E1
8.176041875E0,5.650898895E0,-9.894424438E0,-3.248245239E0,1.184834969E1
8.186009875E0,6.837331696E0,-6.169270935E0,-2.719694366E0,9.602382310E0
8.195978875E0,6.320456543E0,-5.302423553E0,-1.855391693E0,8.456142429E0
8.205946875E0,4.668042755E0,-6.179150391E0,-1.284179535E0,7.849945209E0
8.215914875E0,3.802991638E0,-6.993906097E0,-8.470884705E-1,8.005936971E0
8.225883875E0,4.201313324E0,-6.844816132E0,-1.335223389E-1,8.032457266E0
8.235851875E0,4.525988159E0,-6.013894043E0,3.107537842E-1,7.533130710E0
8.245819875E0,4.268673248E0,-5.337001648E0,4.358935547E-1,6.848004168E0
8.255788875E0,3.622017975E0,-4.987628174E0,6.605763245E-1,6.199339488E0
8.265756875E0,3.065475311E0,-4.604275360E0,1.084794159E0,5.636778233E0
8.275725875E0,2.583477631E0,-4.117038574E0,1.337768097E0,5.041228697E0
8.285693875E0,2.074386292E0,-3.675007782E0,1.395847321E0,4.444901622E0
8.295661875E0,1.412762146E0,-3.486849060E0,1.419797516E0,4.021173738E0
8.305630875E0,8.288264465E-1,-3.371139679E0,1.363514557E0,3.729706149E0
8.315598875E0,2.983296204E-1,-3.525169373E0,1.376238098E0,3.796030950E0
8.325566875E0,-1.486408997E-1,-3.722459106E0,1.621727600E0,4.063101811E0
8.335535875E0,-4.234693909E-1,-3.711382141E0,2.035467224E0,4.254034619E0
8.345503875E0,-8.210426331E-1,-3.641926575E0,2.450703735E0,4.465835754E0
8.355471875E0,-1.481618958E0,-3.445984039E0,2.780018921E0,4.668887012E0
8.365440875E0,-2.299069061E0,-3.068469086E0,3.152743835E0,4.963971673E0
8.375408875E0,-3.496429138E0,-2.900668030E0,3.618874512E0,5.808196318E0
8.385377875E0,-4.454137573E0,-3.059637451E0,3.904630280E0,6.666847866E0
8.395345875E0,-4.487218781E0,-3.479364624E0,2.797981567E0,6.330071992E0
8.405313875E0,-3.674409027E0,-4.153412933E0,4.089495850E-1,5.560518003E0
8.415282875E0,-2.083816681E0,-5.026696930E0,-2.436483307E0,5.962082261E0
8.425250875E0,6.629713440E-1,-5.843697968E0,-6.648723907E0,8.876590930E0
8.435218875E0,4.598587189E0,-6.854994965E0,-1.495405289E1,1.708103211E1
8.445187875E0,1.168185745E1,-9.320068817E0,-2.338197693E1,2.774970849E1
8.455155875E0,2.202968903E1,-1.003168900E1,-1.929263077E1,3.095395911E1
8.465123875E0,3.021631485E1,-9.383087769E0,-2.744842072E0,3.175849772E1
8.475092875E0,3.396467010E1,-1.143232635E1,8.115523682E0,3.674450470E1
8.485060875E0,3.047318069E1,-1.489417740E1,-2.980003052E0,3.404896005E1
8.495028875E0,1.680929489E1,-1.566372711E1,-9.084458771E0,2.470692480E1
8.504997875E0,1.125958557E1,-9.801617432E0,-6.354585571E0,1.622438687E1
8.514965875E0,9.480535126E0,-3.118165741E0,-1.997296600E0,1.017804979E1
8.524934875E0,6.369105377E0,-3.480562134E0,1.164578247E0,7.350922294E0
8.534902875E0,5.744154968E0,-9.591155090E0,1.695823517E0,1.130758107E1
8.544870875E0,6.375541992E0,-1.363978592E1,1.774709473E0,1.516050426E1
8.554839875E0,6.251599731E0,-1.608974121E1,1.274000702E0,1.730853400E1
8.564807875E0,5.574407959E0,-2.006891647E1,-3.751498718E0,2.116386484E1
8.574775875E0,3.589385834E0,-2.246184036E1,-5.123246155E0,2.331663814E1
8.584744875E0,2.130220184E0,-1.895343613E1,-3.176544342E0,1.933548585E1
8.594712875E0,2.112107849E0,-1.305225769E1,-1.220711517E0,1.327827425E1
8.604680875E0,1.689536591E0,-8.290958862E0,9.610015869E-1,8.515753449E0
8.614649875E0,4.718188477E-1,-5.704188080E0,2.337688751E0,6.182650190E0
8.624617875E0,-5.090913391E-1,-4.490511932E0,3.598217468E0,5.776767293E0
8.634585875E0,-1.031804352E0,-4.061803436E0,3.799548798E0,5.656804614E0
8.644554875E0,-1.155447235E0,-4.320615234E0,3.522924042E0,5.693309066E0
8.654522875E0,-7.732919312E-1,-4.956193542E0,3.753893738E0,6.265265600E0
8.664490875E0,-4.689747620E-1,-5.850883026E0,3.460054779E0,6.813570913E0
8.674459875E0,-1.297801208E-1,-6.883735199E0,2.573897552E0,7.350347052E0
8.684427875E0,6.126759338E-1,-8.074508972E0,1.853745117E0,8.307191938E0
8.694396875E0,1.521885223E0,-9.644144897E0,1.346599731E0,9.855911742E0
8.704364875E0,2.674937439E0,-1.119297409E1,1.348545685E0,1.158691222E1
8.714332875E0,4.088747406E0,-1.242251724E1,1.674418030E0,1.318485744E1
8.724301875E0,5.548062744E0,-1.333681595E1,2.668650513E0,1.468922583E1
8.734269875E0,6.796466675E0,-1.355341553E1,3.975133667E0,1.567446074E1
8.744237875E0,7.454198914E0,-1.227657074E1,2.793041840E0,1.463148500E1
8.754206875E0,7.517217865E0,-1.045006897E1,1.103205872E0,1.292012264E1
8.764174875E0,7.197333069E0,-8.897347870E0,-4.954696655E-2,1.144407521E1
8.774142875E0,6.402785339E0,-7.303761749E0,-6.010002136E-1,9.731484833E0
8.784111875E0,5.381159821E0,-5.740562439E0,-4.689747620E-1,7.882314093E0
8.794079875E0,4.228257294E0,-4.607418823E0,3.339555359E-1,6.262427186E0
8.804047875E0,3.839665375E0,-3.979474640E0,5.322930908E-1,5.555410384E0
8.814016875E0,3.733685760E0,-3.676654358E0,5.788462830E-1,5.271931301E0
8.823984875E0,3.663930817E0,-3.990850983E0,8.089178467E-1,5.477739377E0
8.833952875E0,4.175566864E0,-5.032983856E0,9.404942322E-1,6.606876307E0
8.843921875E0,4.937931519E0,-6.175258484E0,9.581575012E-1,7.964612409E0
8.853889875E0,5.418881378E0,-7.029681702E0,9.250762939E-1,8.923926623E0
8.863858875E0,5.656437378E0,-7.718848572E0,9.942324829E-1,9.621039721E0
8.873826875E0,5.846691742E0,-8.320447540E0,1.075064392E0,1.022591879E1
8.883794875E0,6.022126923E0,-8.809181213E0,8.226892090E-1,1.070254661E1
8.893763875E0,5.846841431E0,-8.906927948E0,1.496887207E-4,1.065452581E1
8.903731875E0,5.059778137E0,-8.451574860E0,-1.012793884E0,9.902334263E0
8.913699875E0,4.231700134E0,-7.948022003E0,-1.877545624E0,9.198017034E0
8.923668875E0,3.560495911E0,-7.706574097E0,-2.658621368E0,8.895880115E0
8.933636875E0,3.322490845E0,-7.514224091E0,-3.159330139E0,8.802492603E0
8.943604875E0,4.121678925E0,-7.401508484E0,-2.813848572E0,8.926830836E0
8.953573875E0,5.678291931E0,-7.479346619E0,-1.550625458E0,9.517776232E0
8.963541875E0,6.683751068E0,-7.534432068E0,-2.734812927E-1,1.007546460E1
8.973509875E0,7.302863617E0,-7.591014404E0,5.908213806E-1,1.055008941E1
8.983478875E0,7.820187836E0,-7.814499664E0,1.070723419E0,1.110712345E1
8.993446875E0,8.264463959E0,-8.162975006E0,1.372046814E0,1.169692429E1
9.003414875E0,8.684340820E0,-8.424780579E0,1.739981689E0,1.222383899E1
9.013383875E0,9.238638153E0,-8.491990814E0,2.194137268E0,1.273893957E1
9.023351875E0,9.922266541E0,-8.149503021E0,2.616708527E0,1.310392828E1
9.033319875E0,1.039648041E1,-7.506140900E0,2.739902344E0,1.311243764E1
9.043288875E0,1.049213150E1,-6.696624298E0,2.367476807E0,1.267022284E1
9.053256875E0,1.048195267E1,-6.092031555E0,1.662293243E0,1.223713198E1
9.063225875E0,1.133323242E1,-6.034401398E0,6.512956238E-1,1.285614030E1
9.073193875E0,1.277488449E1,-6.377188568E0,-1.043629761E0,1.431626246E1
9.083161875E0,1.300121384E1,-6.561904449E0,-2.442919922E0,1.476678736E1
9.093130875E0,1.142484192E1,-6.528224487E0,-2.166744232E0,1.333564803E1
9.103098875E0,9.620045013E0,-6.727460175E0,-1.080602875E0,1.178862541E1
9.113066875E0,9.647587738E0,-7.645351410E0,-4.400848389E-2,1.230972315E1
9.123035875E0,1.026460464E1,-9.343120880E0,6.092330933E-1,1.389342223E1
9.133003875E0,1.041384430E1,-1.208227478E1,8.758287048E-1,1.597487380E1
9.142971875E0,9.874515839E0,-1.531704803E1,1.559906158E0,1.829074440E1
9.152940875E0,8.684939575E0,-1.850586685E1,2.709665222E0,2.062128922E1
9.162908875E0,7.353009338E0,-2.114832184E1,4.177812195E0,2.277657520E1
9.172876875E0,5.872138824E0,-2.282408707E1,5.300477600E0,2.415607641E1
9.182845875E0,4.840783539E0,-2.310265778E1,5.095703430E0,2.414812985E1
9.192813875E0,4.475692749E0,-2.220048386E1,3.178190918E0,2.286906659E1
9.202781875E0,4.729265442E0,-2.020782761E1,5.718109131E-1,2.076172478E1
9.212750875E0,5.016518097E0,-1.726075607E1,-1.219813385E0,1.801630092E1
9.222718875E0,5.071154480E0,-1.378303802E1,-1.510957947E0,1.476386599E1
9.232686875E0,4.421954498E0,-1.028256729E1,-1.386865997E0,1.127866433E1
9.242655875E0,4.825066223E0,-7.575895844E0,-1.942959595E-1,8.984053251E0
9.252623875E0,4.831652527E0,-6.376440125E0,-7.634124756E-2,8.000605151E0
9.262591875E0,4.391417999E0,-6.584357758E0,-2.993774414E-2,7.914494007E0
9.272560875E0,4.120780792E0,-6.909930725E0,-2.339634705E-1,8.048771078E0
9.282528875E0,3.951333160E0,-7.032376099E0,-9.235794067E-2,8.066962088E0
9.292496875E0,3.840862885E0,-6.625222778E0,4.098477173E-1,7.669014259E0
9.302465875E0,3.616778870E0,-5.877228241E0,5.834866333E-1,6.925558305E0
9.312433875E0,3.005749512E0,-5.325774994E0,5.144801331E-1,6.137026904E0
9.322401875E0,2.317480774E0,-5.163063354E0,6.703060913E-1,5.698881521E0
9.332370875E0,2.171534271E0,-4.577331390E0,1.167122955E0,5.199009496E0
9.342338875E0,2.148781586E0,-3.777843933E0,1.423240356E0,4.573289866E0
9.352306875E0,1.613195343E0,-3.381468201E0,1.253643036E0,3.950740091E0
9.362275875E0,8.424481201E-1,-3.401676178E0,9.265731812E-1,3.624866551E0
9.372243875E0,-1.191522217E-1,-3.776347046E0,6.262976074E-1,3.829783670E0
9.382211875E0,-4.186793518E-1,-3.551813965E0,7.801776123E-1,3.660512525E0
9.392180875E0,-4.688250732E-1,-3.037034454E0,1.192719727E0,3.296354892E0
9.402148875E0,-9.129515076E-1,-2.791095886E0,1.633403320E0,3.360312948E0
9.412117875E0,-1.767823792E0,-2.831811218E0,2.080074463E0,3.933327536E0
9.422085875E0,-2.899769897E0,-3.165018311E0,2.423161011E0,4.929271310E0
9.432053875E0,-3.861669617E0,-3.802392883E0,2.445015564E0,5.945484419E0
9.442022875E0,-3.700754242E0,-4.172872467E0,1.884431305E0,5.887234319E0
9.451990875E0,-2.437531128E0,-4.278852081E0,6.953041077E-1,4.973286734E0
9.461958875E0,-7.746391296E-1,-4.611161041E0,-7.200027466E-1,4.730885317E0
9.471927875E0,1.374890900E0,-5.117707672E0,-2.369722137E0,5.804897916E0
9.481895875E0,4.072131958E0,-5.705086212E0,-4.692442017E0,8.435003228E0
9.491863875E0,7.659422150E0,-6.583459625E0,-8.665480042E0,1.330786356E1
9.501832875E0,1.356359436E1,-8.419242096E0,-1.683099976E1,2.319778615E1
9.511800875E0,2.328782272E1,-9.628577271E0,-1.931837723E1,3.175266739E1
9.521768875E0,2.980766464E1,-9.938582611E0,-4.550686798E0,3.174871724E1
9.531737875E0,3.000225998E1,-1.140403519E1,5.828878784E-1,3.210182831E1
9.541705875E0,2.393417862E1,-1.212553482E1,-3.452720032E0,2.705170561E1
9.551673875E0,1.543904434E1,-9.753717041E0,-4.277654572E0,1.875626335E1
9.561642875E0,1.167182831E1,-4.388124847E0,-2.676434326E0,1.275345116E1
9.571610875E0,8.436905365E0,-4.448748779E-1,5.673202515E-1,8.467652453E0
9.581578875E0,5.374423828E0,-9.105564880E-1,3.037782898E0,6.240326076E0
9.591547875E0,4.180356903E0,-6.673871613E0,4.054319000E0,8.857395142E0
9.601515875E0,4.442461853E0,-1.310240341E1,3.056044922E0,1.416855155E1
9.611483875E0,4.200864258E0,-1.741119324E1,-2.962339783E-1,1.791325389E1
9.621452875E0,3.436104584E0,-2.329545685E1,-9.479337616E0,2.538391156E1
9.631420875E0,3.772305450E0,-2.900608154E1,-1.263507523E1,3.186264554E1
9.641388875E0,7.809260559E0,-2.635000488E1,-5.085674286E0,2.794944348E1
9.651357875E0,8.164621582E0,-1.889550659E1,1.342707825E0,2.062775022E1
9.661325875E0,4.742737427E0,-1.196297287E1,3.736679535E0,1.340033776E1
9.671293875E0,1.355131989E0,-7.652835846E0,4.552033997E0,9.006846990E0
9.681262875E0,-8.460406494E-1,-5.265001373E0,5.036426697E0,7.334958631E0
9.691230875E0,-2.089205475E0,-3.951782227E0,4.562063141E0,6.387001048E0
9.701198875E0,-2.613265686E0,-3.372935944E0,3.761228485E0,5.687942874E0
9.711167875E0,-2.477348328E0,-3.194806366E0,3.205434265E0,5.159346013E0
9.721135875E0,-2.042502594E0,-3.424578552E0,2.262694702E0,4.584685640E0
9.731103875E0,-1.635948029E0,-4.190685425E0,1.280886383E0,4.677482251E0
9.741072875E0,-1.325044556E0,-5.733078003E0,7.405101013E-1,5.930622368E0
9.751040875E0,-8.641529846E-1,-7.722441101E0,5.960604858E-1,7.793468101E0
9.761009875E0,2.371069336E-1,-9.871072998E0,9.488768005E-1,9.919408703E0
9.770977875E0,2.028132477E0,-1.179547119E1,1.525926819E0,1.206544299E1
9.780945875E0,4.318968658E0,-1.318607941E1,1.857936401E0,1.399921812E1
9.790913875E0,6.701713715E0,-1.386027740E1,2.427651672E0,1.558569052E1
9.800882875E0,8.202193451E0,-1.366987335E1,5.153183899E0,1.675400606E1
9.810850875E0,8.681496735E0,-1.208990891E1,5.137466583E0,1.574572468E1
9.820819875E0,8.631650391E0,-9.828262024E0,3.198548584E0,1.346591385E1
9.830787875E0,7.857460327E0,-7.877219238E0,2.120191040E0,1.132631784E1
9.840755875E0,6.843768311E0,-6.201154633E0,1.319356384E0,9.329104176E0
9.850724875E0,6.358028412E0,-4.776118011E0,4.149371338E-1,7.962914126E0
9.860692875E0,5.771098938E0,-3.761228485E0,4.415817261E-1,6.902710851E0
9.870660875E0,4.875810699E0,-3.364104309E0,7.682025146E-1,5.973346037E0
9.880629875E0,4.288881226E0,-3.369642792E0,9.321116638E-1,5.533337769E0
9.890597875E0,4.289929047E0,-3.793411560E0,8.175997925E-1,5.784628934E0
9.900565875E0,4.736300812E0,-4.817282410E0,1.678010559E-1,6.757729825E0
9.910534875E0,5.232069855E0,-6.038742371E0,-4.822970581E-1,8.004597106E0
9.920502875E0,5.639372864E0,-7.118297424E0,-9.813592529E-1,9.134317189E0
9.930471000E0,6.072572021E0,-8.011939087E0,-1.287472687E0,1.013532855E1
9.940440000E0,6.271208954E0,-8.719966736E0,-1.679357758E0,1.087134417E1
9.950408000E0,5.887407074E0,-9.023385773E0,-2.237996063E0,1.100416645E1
9.960376000E0,5.135370941E0,-8.955726471E0,-2.764451294E0,1.068734122E1
9.970345000E0,4.500541077E0,-8.727301483E0,-2.860401764E0,1.022753926E1
9.980313000E0,4.105961609E0,-8.551417236E0,-2.681673431E0,9.857841035E0
9.990281000E0,4.196523285E0,-8.345295868E0,-2.120789795E0,9.578753581E0
1.000025000E1,4.753065948E0,-7.945327606E0,-8.445437622E-1,9.296941478E0
1.001021800E1,5.674998779E0,-7.316185913E0,6.062393188E-1,9.278993134E0
1.002018600E1,6.797963562E0,-6.900350647E0,1.310075684E0,9.774632778E0
1.003015500E1,7.877069550E0,-6.819219360E0,1.250948639E0,1.049356231E1
1.004012300E1,8.711584167E0,-6.923552399E0,7.851173401E-1,1.115543302E1
1.005009100E1,9.299262085E0,-7.154372406E0,4.899311829E-1,1.174314065E1
1.006006000E1,9.970466309E0,-7.476352844E0,8.720864868E-1,1.249266125E1
1.007002800E1,1.060709244E1,-7.482041016E0,1.814227295E0,1.310659256E1
1.007999600E1,1.100571350E1,-7.085365906E0,2.760110321E0,1.337708297E1
1.008996500E1,1.113773895E1,-6.420298920E0,3.369343414E0,1.328991882E1
1.009993300E1,1.093191696E1,-5.689368896E0,3.655997314E0,1.285465065E1
1.010990100E1,1.077534256E1,-5.377118225E0,3.168012085E0,1.245221700E1
1.011987000E1,1.187899750E1,-5.683381348E0,1.385967865E0,1.324131081E1
1.012983800E1,1.342647949E1,-6.318809967E0,-1.468895416E0,1.491158492E1
1.013980600E1,1.255065079E1,-6.632707214E0,-3.549119568E0,1.463242597E1
1.014977500E1,9.867330780E0,-6.740932159E0,-2.910098419E0,1.229931120E1
1.015974300E1,8.065527649E0,-6.629264374E0,-9.710307312E-1,1.048536042E1
1.016971100E1,7.956554260E0,-6.846313019E0,5.839356995E-1,1.051283685E1
1.017968000E1,8.320597229E0,-8.125403137E0,1.219813385E0,1.169369313E1
1.018964800E1,8.795709229E0,-1.078671890E1,1.061592407E0,1.395868131E1
1.019961600E1,9.495653687E0,-1.424003769E1,1.190624084E0,1.715703057E1
1.020958500E1,9.862690430E0,-1.802057602E1,2.042801971E0,2.064429370E1
1.021955300E1,9.413624268E0,-2.162283508E1,3.466341705E0,2.383650234E1
1.022952100E1,8.035739594E0,-2.409210022E1,4.696483612E0,2.582749237E1
1.023949000E1,6.306236115E0,-2.505130554E1,4.599185944E0,2.623907458E1
1.024945800E1,5.008135529E0,-2.419822952E1,2.791844330E0,2.486825543E1
1.025942600E1,4.499942322E0,-2.156131302E1,6.207591248E-1,2.203463278E1
1.026939500E1,4.230203247E0,-1.770847504E1,-5.637277222E-1,1.821544665E1
1.027936300E1,4.075874176E0,-1.356344467E1,-1.388811951E0,1.423055095E1
1.028933100E1,4.667743378E0,-9.408684540E0,-1.660946045E0,1.063343382E1
1.029930000E1,5.485792236E0,-6.605014801E0,-8.309220886E-1,8.626156067E0
1.030926800E1,5.584137726E0,-5.843099213E0,-3.435356140E-1,8.089648896E0
1.031923600E1,5.053940277E0,-6.306236115E0,-4.059558105E-1,8.091707260E0
1.032920500E1,4.414020996E0,-6.839876404E0,-4.656816101E-1,8.153793592E0
1.033917300E1,4.391717377E0,-6.726112976E0,9.415420532E-2,8.033470128E0
1.034914100E1,4.346661072E0,-6.009104004E0,5.412744141E-1,7.436112653E0
1.035911000E1,4.065845032E0,-5.334606628E0,6.107299805E-1,6.735140296E0
1.036907800E1,3.260669403E0,-5.156327362E0,5.182223511E-1,6.122763365E0
1.037904600E1,2.628533936E0,-4.943170624E0,6.608757019E-1,5.637453606E0
1.038901500E1,2.565365295E0,-4.341272278E0,9.871971130E-1,5.138317062E0
1.039898300E1,2.360740814E0,-3.921096039E0,1.195563812E0,4.730482445E0
1.040895100E1,1.719025269E0,-3.978576508E0,1.254541168E0,4.511983205E0
1.041892000E1,8.788224792E-1,-4.184398499E0,1.246457977E0,4.453670086E0
1.042888800E1,2.380050659E-1,-4.289779358E0,1.293160858E0,4.486771485E0
1.043885600E1,-1.035845947E-1,-4.119433594E0,1.403930511E0,4.353330195E0
1.044882500E1,-4.779560852E-1,-3.921545105E0,1.657353516E0,4.284131033E0
1.045879300E1,-1.091679840E0,-3.719315643E0,1.936522980E0,4.333035308E0
1.046876100E1,-2.001637573E0,-3.435505829E0,2.276316376E0,4.581579369E0
1.047873000E1,-3.165617065E0,-3.157084808E0,2.812950439E0,5.282140292E0
1.048869800E1,-4.028422852E0,-2.988834686E0,3.362158356E0,6.038661463E0
1.049866600E1,-4.042792969E0,-2.947370911E0,3.264710999E0,5.974069649E0
1.050863500E1,-3.254681854E0,-3.178340607E0,1.706301727E0,4.858628260E0
1.051860300E1,-1.857487335E0,-3.791764984E0,-5.090913391E-1,4.252871370E0
1.052857100E1,1.731898499E-1,-4.548591156E0,-3.057392120E0,5.483367834E0
1.053854000E1,2.624043274E0,-5.425018616E0,-7.184609528E0,9.377368722E0
1.054850800E1,6.224805450E0,-6.587052155E0,-1.446980988E1,1.707374759E1
1.055847600E1,1.380623978E1,-8.868607635E0,-2.107317810E1,2.670848729E1
1.056844500E1,2.460313751E1,-1.022134460E1,-1.487112534E1,3.051131970E1
1.057841300E1,3.121698395E1,-1.164353714E1,1.860481110E0,3.336964839E1
1.058838100E1,3.272150528E1,-1.429257843E1,1.492246857E0,3.573795611E1
1.059835000E1,2.357896729E1,-1.656066193E1,-6.370751953E0,2.950948495E1
1.060831800E1,1.308354263E1,-1.405457336E1,-5.974825287E0,2.010991441E1
1.061828600E1,1.028556107E1,-6.950196991E0,-3.401077423E0,1.287110455E1
1.062825500E1,8.191565552E0,-1.118923187E0,3.436853027E-1,8.274772195E0
1.063822300E1,4.928201752E0,2.857557678E-1,2.372566223E0,5.477033809E0
1.064819100E1,1.802551575E0,-1.861229553E0,1.977687378E0,3.259542145E0
1.065816000E1,-3.023712158E-1,-7.494465179E0,5.725593567E-1,7.522383990E0
1.066812800E1,-1.025667114E0,-1.291843597E1,-1.274150391E0,1.302157595E1
1.067809600E1,-1.844763794E0,-1.788465866E1,-7.818690948E0,1.960602196E1
1.068806500E1,-1.991159363E0,-2.371847717E1,-1.333427124E1,2.728247908E1
1.069803300E1,3.851341095E0,-2.476540009E1,-3.986959076E0,2.537821334E1
1.070800100E1,1.103505249E1,-2.320669144E1,1.409918060E0,2.573539935E1
1.071797000E1,1.331840424E1,-1.898127823E1,3.455564117E0,2.344375691E1
1.072793800E1,1.019155655E1,-1.212119385E1,3.925287323E0,1.631560743E1
1.073790600E1,5.980064392E0,-7.135661316E0,3.918850708E0,1.010129811E1
1.074787500E1,2.706222382E0,-4.842579803E0,3.808530121E0,6.728976179E0
1.075784300E1,6.161187744E-1,-3.714076538E0,3.071612549E0,4.858885729E0
1.076781100E1,-6.423143005E-1,-3.097059631E0,2.411036224E0,3.977114745E0
1.077778000E1,-1.355431366E0,-2.774630127E0,1.916764069E0,3.634522118E0
1.078774800E1,-1.450633392E0,-2.739902344E0,1.358874207E0,3.384958080E0
1.079771600E1,-9.732760620E-1,-3.482208710E0,6.815327454E-1,3.679338347E0
1.080768400E1,-3.378474426E-1,-5.003944244E0,1.505868530E-1,5.017596566E0
1.081765300E1,6.819818115E-1,-6.855294342E0,1.697470093E-1,6.891224402E0
1.082762100E1,2.235002289E0,-9.073082428E0,6.578819275E-1,9.367436608E0
1.083758900E1,4.317771149E0,-1.152618118E1,1.349743195E0,1.238215680E1
1.084755800E1,6.672374725E0,-1.370894211E1,2.428699493E0,1.543872597E1
1.085752600E1,8.954678650E0,-1.524669434E1,4.664450226E0,1.828674530E1
1.086749400E1,1.022808060E1,-1.476619354E1,5.392386475E0,1.875451776E1
1.087746300E1,1.014215927E1,-1.225741058E1,3.652554474E0,1.632325528E1
1.088743100E1,8.976682892E0,-9.508526917E0,2.164199524E0,1.325430796E1
1.089739900E1,7.455845490E0,-7.261699219E0,1.574126587E0,1.052614754E1
1.090736800E1,5.925428009E0,-5.589676208E0,1.565893707E0,8.295010567E0
1.091733600E1,4.397704926E0,-4.408183136E0,1.757046204E0,6.469860782E0
1.092730408E1,3.067271576E0,-3.604504395E0,1.674418030E0,5.020386697E0
1.093727308E1,2.082918549E0,-3.159779205E0,1.374441833E0,4.026393505E0
1.094724108E1,1.452130280E0,-3.197800140E0,8.601113892E-1,3.615853936E0
1.095720908E1,1.241368561E0,-4.002676392E0,3.601510620E-1,4.206200541E0
1.096717808E1,1.833237762E0,-5.457351379E0,-8.681945801E-3,5.757040919E0
1.097714608E1,2.468666382E0,-6.836882629E0,-1.868115234E-1,7.271325625E0
1.098711408E1,2.933898926E0,-8.195607147E0,-6.072871399E-1,8.726083720E0
1.099708308E1,3.427123260E0,-9.377249908E0,-1.546583862E0,1.010296547E1
1.100705108E1,4.154161377E0,-1.009126511E1,-2.746039581E0,1.125306276E1
1.101701908E1,5.134323120E0,-1.033286270E1,-3.545077972E0,1.207049723E1
1.102698808E1,5.947881317E0,-9.960437164E0,-3.106490021E0,1.200990761E1
1.103695608E1,6.391708374E0,-9.017248535E0,-1.689386902E0,1.118117772E1
1.104692408E1,6.617588654E0,-8.059390411E0,-3.397933960E-1,1.043368166E1
1.105689308E1,6.719077606E0,-7.373666382E0,5.626799011E-1,9.991674958E0
1.106686108E1,6.928192749E0,-6.847809906E0,1.069376221E0,9.799791874E0
1.107682908E1,7.403753815E0,-6.362070007E0,1.312620392E0,9.849592764E0
1.108679808E1,7.959398346E0,-5.879323883E0,1.443148956E0,1.000005751E1
1.109676608E1,8.618178406E0,-5.479205933E0,1.400637360E0,1.030807847E1
1.110673408E1,9.560917969E0,-5.342540131E0,1.137484589E0,1.101125600E1
1.111670308E1,1.071621552E1,-5.492528229E0,8.614585876E-1,1.207258267E1
1.112667108E1,1.168799469E1,-5.829477539E0,1.001567230E0,1.309943377E1
1.113663908E1,1.228166016E1,-6.167923737E0,1.387464752E0,1.381330945E1
1.114660808E1,1.241608063E1,-6.366560669E0,1.569635925E0,1.404122181E1
1.115657608E1,1.157033936E1,-6.367758179E0,1.246008911E0,1.326550546E1
1.116654408E1,9.765542450E0,-6.443500671E0,6.201603699E-1,1.171619047E1
1.117651308E1,7.980504456E0,-7.057523804E0,-5.450166321E-1,1.066743347E1
1.118648108E1,7.092850342E0,-7.520061951E0,-1.557062073E0,1.045391314E1
1.119644908E1,7.604486389E0,-7.463030548E0,-1.459465027E0,1.075430502E1
1.120641708E1,9.443262634E0,-7.302713928E0,-1.782193909E0,1.206984072E1
1.121638608E1,1.075917618E1,-7.490872650E0,-2.012864227E0,1.326365966E1
1.122635408E1,1.044213547E1,-7.882757721E0,-1.016236725E0,1.312283504E1
1.123632208E1,9.847571869E0,-8.400531006E0,7.611671448E-1,1.296622413E1
1.124629108E1,9.456435242E0,-9.248068542E0,2.322121124E0,1.342919155E1
1.125625908E1,9.506580963E0,-1.077234879E1,3.348536682E0,1.475233127E1
1.126622708E1,1.009246262E1,-1.291693909E1,4.276756439E0,1.694094928E1
1.127619608E1,1.013841705E1,-1.565294952E1,5.171146545E0,1.935311566E1
1.128616408E1,9.585466919E0,-1.858295654E1,5.705235901E0,2.167388213E1
1.129613208E1,9.260043640E0,-2.107377686E1,5.325176239E0,2.362646781E1
1.130610108E1,9.345066833E0,-2.269849823E1,3.643273773E0,2.481583244E1
1.131606908E1,8.997639313E0,-2.314292404E1,1.362167358E0,2.486780944E1
1.132603708E1,7.668553162E0,-2.184751785E1,-6.870712280E-1,2.316447303E1
1.133600608E1,5.654341736E0,-1.892005554E1,-1.603166199E0,1.981187079E1
1.134597408E1,3.932921448E0,-1.539638306E1,-1.049766998E0,1.592540402E1
1.135594208E1,2.825973358E0,-1.170820267E1,-7.768844604E-2,1.204467395E1
1.136591108E1,3.160827026E0,-8.642427979E0,-1.035845947E-1,9.202886429E0
1.137587908E1,4.084855499E0,-7.136858826E0,-4.382885742E-1,8.234858543E0
1.138584708E1,4.864434357E0,-7.106172638E0,-5.836363220E-1,8.631398643E0
1.139581608E1,5.147346039E0,-7.488926697E0,-1.273551636E0,9.176117266E0
1.140578408E1,4.939877472E0,-7.769293671E0,-1.221160583E0,9.287386433E0
1.141575208E1,4.760550385E0,-7.256909180E0,-4.153862000E-1,8.688965215E0
1.142572108E1,4.480482788E0,-6.355034637E0,2.305206299E-1,7.779095771E0
1.143568908E1,4.002676392E0,-5.713468781E0,6.858737183E-1,7.009676637E0
1.144565708E1,3.263663177E0,-5.494923248E0,8.063731384E-1,6.441732413E0
1.145562608E1,2.490820312E0,-5.453309784E0,7.634124756E-1,6.043638973E0
1.146559408E1,1.953138428E0,-5.161865845E0,7.241940308E-1,5.566333238E0
1.147556208E1,1.517544250E0,-4.637805634E0,7.066804504E-1,4.930677327E0
1.148553008E1,8.250842285E-1,-4.315226440E0,8.479866028E-1,4.474485948E0
1.149549908E1,6.795867920E-2,-4.105512543E0,1.186432800E0,4.274046608E0
1.150546708E1,-6.803352356E-1,-3.980223083E0,1.636696472E0,4.357041103E0
1.151543508E1,-1.233435059E0,-3.566483459E0,2.052232361E0,4.295675031E0
1.152540408E1,-1.713935852E0,-2.919528809E0,2.179916840E0,4.026569507E0
1.153537208E1,-2.475102997E0,-2.359243927E0,2.238445129E0,4.086906330E0
1.154534008E1,-3.279829559E0,-2.015708313E0,2.332299957E0,4.501109311E0
1.155530908E1,-3.807033234E0,-1.838327179E0,2.397115173E0,4.859949590E0
1.156527708E1,-4.117637329E0,-1.893412628E0,2.080074463E0,4.986648005E0
1.157524508E1,-3.719016266E0,-2.233056335E0,1.288071442E0,4.525124376E0
1.158521408E1,-2.071093140E0,-2.864293671E0,5.508544922E-2,3.535058618E0
1.159518208E1,5.008584595E-1,-3.656296692E0,-1.711091766E0,4.067824938E0
1.160515008E1,3.591182098E0,-4.552932129E0,-4.944966888E0,7.620923655E0
1.161511908E1,7.663463745E0,-5.998027039E0,-1.183962936E1,1.532585490E1
1.162508708E1,1.525717255E1,-9.213191071E0,-2.322869568E1,2.927860152E1
1.163505508E1,2.460583191E1,-9.036558380E0,-1.426713135E1,2.984388360E1
1.164502408E1,2.707240265E1,-7.678432617E0,2.319875793E0,2.823570676E1
1.165499208E1,2.756128601E1,-8.359216919E0,3.918251953E0,2.906636703E1
1.166496008E1,2.539514053E1,-9.821226654E0,-5.108576660E0,2.770319857E1
1.167492908E1,1.729204102E1,-1.077863571E1,-7.723488922E0,2.179096031E1
1.168489708E1,1.168649780E1,-7.518415375E0,-3.814817047E0,1.441019187E1
1.169486508E1,9.149872742E0,-2.639311523E0,1.478176117E0,9.636967424E0
1.170483308E1,6.911577301E0,-2.138902130E0,4.257296906E0,8.394604222E0
1.171480208E1,5.002297668E0,-6.609056396E0,1.825004883E0,8.487240496E0
1.172477008E1,5.003495178E0,-1.287712189E1,-4.963677979E-1,1.382395070E1
1.173473808E1,3.961511993E0,-1.697305435E1,-4.356839905E0,1.796552825E1
1.174470708E1,1.917063446E0,-2.241887970E1,-1.556613007E1,2.736029431E1
1.175467508E1,2.043849792E0,-2.639086990E1,-1.097772171E1,2.865598908E1
1.176464308E1,6.524631958E0,-2.381397858E1,5.640270996E-1,2.469806722E1
1.177461208E1,8.638386383E0,-1.932092194E1,3.422033844E0,2.143898457E1
1.178458008E1,6.347999268E0,-1.383438126E1,4.381388855E0,1.583931084E1
1.179454808E1,3.260370026E0,-8.908574524E0,4.921615448E0,1.068714234E1
1.180451708E1,1.059047699E0,-6.018235016E0,5.121449890E0,7.973078685E0
1.181448508E1,-2.044747925E-1,-4.342918854E0,4.864284668E0,6.524110625E0
1.182445308E1,-8.373587036E-1,-3.324137421E0,4.208049316E0,5.427590463E0
1.183442208E1,-1.017883301E0,-2.766097870E0,4.090543671E0,5.041818259E0
1.184439008E1,-9.369017029E-1,-2.540367279E0,4.059258728E0,4.879429489E0
1.185435808E1,-1.016386414E0,-3.040327606E0,3.464096375E0,4.719808999E0
1.186432708E1,-7.321275330E-1,-4.419559479E0,2.339185638E0,5.053741798E0
1.187429508E1,5.721102905E-1,-6.087540894E0,1.358125763E0,6.263383263E0
1.188426308E1,2.483934631E0,-8.071066132E0,1.140029297E0,8.521250293E0
1.189423208E1,4.649780731E0,-1.024409729E1,1.578317871E0,1.136015306E1
1.190420008E1,7.164401550E0,-1.206610840E1,2.550396423E0,1.426268360E1
1.191416808E1,9.527836761E0,-1.331361420E1,3.854185181E0,1.681923719E1
1.192413608E1,1.064556244E1,-1.407478134E1,6.089935913E0,1.866855080E1
1.193410496E1,1.088177124E1,-1.308099792E1,4.170627136E0,1.751912049E1
1.194407296E1,9.937983856E0,-1.074974579E1,1.371448059E0,1.470378956E1
1.195404096E1,8.163124695E0,-8.510402527E0,1.797761536E-1,1.179389145E1
1.196400996E1,6.143973541E0,-6.609954529E0,-6.900650024E-2,9.024670168E0
1.197397796E1,4.319567413E0,-4.944368134E0,-1.062640228E0,6.650912955E0
1.198394596E1,2.877316589E0,-3.698808289E0,-2.736609192E0,5.426708337E0
1.199391496E1,1.069974976E0,-3.221301270E0,-4.073778534E0,5.302574833E0
1.200388296E1,2.680924988E-1,-3.858376465E0,-3.503165131E0,5.218343460E0
1.201385096E1,1.789378967E0,-5.451663208E0,-1.681603088E0,5.979155272E0
1.202381996E1,3.778143311E0,-6.557413788E0,-3.032693481E-1,7.574035566E0
1.203378796E1,4.609364777E0,-7.398514709E0,3.357518005E-1,8.723359033E0
1.204375596E1,4.878954163E0,-7.933951263E0,5.891748047E-1,9.332679322E0
1.205372496E1,5.069208527E0,-8.438102875E0,4.806504822E-1,9.855428966E0
1.206369296E1,5.352569275E0,-9.099876709E0,-1.059796143E-1,1.055788737E1
1.207366096E1,5.298082581E0,-9.341324615E0,-7.107220459E-1,1.076267394E1
1.208362896E1,4.737648010E0,-8.985364838E0,-3.617976379E-1,1.016429965E1
1.209359796E1,4.196523285E0,-8.246501312E0,1.553768921E-1,9.254173845E0
1.210356596E1,4.088747406E0,-7.486232300E0,5.536985779E-1,8.547988741E0
1.211353396E1,4.195325775E0,-6.879394226E0,6.724017334E-1,8.085724913E0
1.212350296E1,4.848118286E0,-6.313570862E0,9.868977356E-1,8.021184145E0
1.213347096E1,5.854924622E0,-6.095773773E0,1.036295013E0,8.515427621E0
1.214343896E1,7.097341003E0,-6.026916962E0,5.269042969E-1,9.325964053E0
1.215340796E1,8.149802399E0,-6.113137665E0,4.264631653E-1,1.019664661E1
1.216337596E1,8.899144135E0,-6.482120361E0,8.375083923E-1,1.104147051E1
1.217334396E1,9.252110138E0,-7.190597076E0,9.734257507E-1,1.175813701E1
1.218331296E1,9.590256958E0,-7.902666321E0,1.699715424E0,1.254249561E1
1.219328096E1,1.048584457E1,-8.319250031E0,2.380499725E0,1.359520638E1
1.220324896E1,1.144504990E1,-8.132438507E0,2.715503082E0,1.430033846E1
1.221321796E1,1.173005722E1,-7.614365845E0,2.073787537E0,1.413765908E1
1.222318596E1,1.112172226E1,-6.993457031E0,5.367837524E-1,1.314873698E1
1.223315396E1,1.006102798E1,-6.491999817E0,-3.971241760E-1,1.198031942E1
1.224312196E1,1.023975632E1,-6.321654053E0,-6.345304871E-1,1.205066589E1
1.225309096E1,1.205009171E1,-6.766828308E0,-1.373094635E0,1.388812674E1
1.226305896E1,1.262998581E1,-7.208559723E0,-1.759141846E0,1.464836014E1
1.227302696E1,1.093790451E1,-7.175628204E0,-4.992118835E-1,1.309108887E1
1.228299596E1,9.043593750E0,-7.145091705E0,6.174659729E-1,1.154210499E1
1.229296396E1,8.566236420E0,-7.347171478E0,1.381926270E0,1.136974298E1
1.230293196E1,8.931925964E0,-8.432414703E0,1.641486511E0,1.239271549E1
1.231290096E1,9.578281860E0,-1.089150101E1,1.081501007E0,1.454434330E1
1.232286896E1,9.883048096E0,-1.442505295E1,1.045276337E0,1.751711720E1
1.233283696E1,9.615105286E0,-1.862980911E1,2.472258911E0,2.111000003E1
1.234280596E1,8.683442688E0,-2.253339157E1,4.376299438E0,2.454196222E1
1.235277396E1,7.259154510E0,-2.510249908E1,5.092410278E0,2.662261120E1
1.236274196E1,5.990841980E0,-2.540187653E1,4.178261261E0,2.643110641E1
1.237271096E1,5.534441071E0,-2.320414673E1,1.485660553E0,2.390124789E1
1.238267896E1,5.255421295E0,-1.973825409E1,-1.132245483E0,2.045727517E1
1.239264696E1,4.794829102E0,-1.623149643E1,-2.251018982E0,1.707392600E1
1.240261496E1,4.104165344E0,-1.295735504E1,-1.566492462E0,1.368178064E1
1.241258396E1,3.866609344E0,-1.005653732E1,4.954696655E-2,1.077437078E1
1.242255196E1,3.691473541E0,-7.975564728E0,4.052073669E-1,8.797772596E0
1.243251996E1,3.658841400E0,-7.077282715E0,-1.076261902E-1,7.967850050E0
1.244248896E1,3.500770111E0,-7.161707153E0,4.613406372E-1,7.984877952E0
1.245245696E1,4.046235809E0,-6.671775970E0,6.506968689E-1,7.829944140E0
1.246242496E1,4.993016968E0,-5.730832672E0,1.176553345E-1,7.601743506E0
1.247239396E1,5.203778687E0,-5.128634949E0,-1.829196167E-1,7.308602373E0
1.248236196E1,4.803960114E0,-4.851112061E0,9.879455566E-2,6.827963193E0
1.249232996E1,4.338727570E0,-4.471351776E0,3.769161987E-1,6.241763329E0
1.250229896E1,3.870650940E0,-4.152065735E0,4.797523499E-1,5.696643826E0
1.251226696E1,3.209326172E0,-4.045337677E0,6.411167908E-1,5.203418313E0
1.252223496E1,2.438878326E0,-3.968547363E0,8.069718933E-1,4.727441095E0
1.253220396E1,1.707499237E0,-3.823648682E0,1.107696533E0,4.331608765E0
1.254217196E1,1.003962250E0,-3.519032135E0,1.425635376E0,3.927335431E0
1.255213996E1,2.576142883E-1,-3.120261383E0,1.626817017E0,3.528304101E0
1.256210796E1,-4.995112610E-1,-2.842139740E0,1.601369934E0,3.300250819E0
1.257207696E1,-1.207538910E0,-2.695594482E0,1.774559784E0,3.445786160E0
1.258204496E1,-1.934127960E0,-2.756218414E0,2.174977112E0,4.008505501E0
1.259201296E1,-2.877017212E0,-2.966531067E0,2.749482422E0,4.963586223E0
1.260198196E1,-3.927682343E0,-3.248843994E0,3.321592712E0,6.083966965E0
1.261194996E1,-4.667593689E0,-3.532055054E0,3.596121826E0,6.869784271E0
1.262191796E1,-4.769232330E0,-3.646117859E0,3.291355591E0,6.846369409E0
1.263188696E1,-4.101920013E0,-3.653302917E0,1.940564575E0,5.825646820E0
1.264185496E1,-2.368524628E0,-3.889362030E0,-2.490820312E-1,4.560601690E0
1.265182296E1,3.330574036E-1,-4.502636719E0,-3.060685272E0,5.454581468E0
1.266179196E1,3.413052521E0,-5.213508453E0,-8.049361267E0,1.017948008E1
1.267175996E1,7.922425232E0,-6.746919708E0,-1.847069000E1,2.120028623E1
1.268172796E1,1.704206085E1,-9.094936981E0,-2.599284760E1,3.238483971E1
1.269169696E1,2.735007523E1,-9.825717316E0,-1.098610428E1,3.106872741E1
1.270166496E1,3.223307098E1,-1.288011566E1,5.455106049E0,3.513725127E1
1.271163296E1,3.240506332E1,-1.666245026E1,3.207829285E-1,3.643937814E1
1.272160196E1,2.109173950E1,-1.741912674E1,-6.322851562E0,2.807607351E1
1.273156996E1,1.281964142E1,-1.151675079E1,-5.397924957E0,1.805869178E1
1.274153796E1,1.015218842E1,-3.370391235E0,-1.072220306E0,1.075063361E1
1.275150696E1,7.263495483E0,1.040486298E0,3.977977753E0,8.346573271E0
1.276147496E1,4.071084137E0,1.716929626E0,4.883145447E0,6.585338476E0
1.277144296E1,2.034269714E0,-1.609004059E0,2.741399231E0,3.773912701E0
1.278141196E1,2.412383423E0,-9.152716827E0,1.031954041E0,9.521383736E0
1.279137996E1,3.926035767E0,-1.691317886E1,-3.691623230E0,1.775098471E1
1.280134796E1,7.064259796E0,-2.679113754E1,-9.926457825E0,2.943133334E1
1.281131596E1,1.057835220E1,-3.299842941E1,-6.156397705E0,3.519515750E1
1.282128496E1,1.258702515E1,-3.001827667E1,9.304650879E-1,3.256372064E1
1.283125296E1,8.358618164E0,-1.974528946E1,2.919229431E0,2.163942823E1
1.284122096E1,2.590812378E0,-1.151600235E1,3.967649231E0,1.245282535E1
1.285118996E1,-7.285350037E-1,-7.004983063E0,5.424419861E0,8.889594017E0
1.286115796E1,-2.661615143E0,-4.548441467E0,4.303550720E0,6.803900628E0
1.287112596E1,-4.115391998E0,-3.072810059E0,3.436553650E0,6.179685586E0
1.288109496E1,-4.394860840E0,-2.007026367E0,3.398383026E0,5.906942003E0
1.289106296E1,-3.217708740E0,-1.738035736E0,3.288810883E0,4.918403682E0
1.290103096E1,-2.009271698E0,-2.296823730E0,3.095862122E0,4.347060418E0
1.291099996E1,-2.030527496E0,-4.190685425E0,2.309397583E0,5.197903754E0
1.292096796E1,-2.022593994E0,-6.782545624E0,1.589694214E0,7.254029177E0
1.293093933E1,-1.016386414E0,-9.742789764E0,1.662442932E0,9.935728974E0
1.294090833E1,9.057664490E-1,-1.262863861E1,1.160985718E0,1.271419733E1
1.295087633E1,3.141666870E0,-1.472742416E1,7.185058594E-1,1.507591934E1
1.296084433E1,5.545068970E0,-1.554158112E1,4.074526978E-1,1.650619736E1
1.297081333E1,7.592960358E0,-1.479119156E1,1.158890076E0,1.666659596E1
1.298078133E1,8.169860687E0,-1.276006531E1,3.387455750E0,1.552548701E1
1.299074933E1,7.658973083E0,-1.031924103E1,2.580783234E0,1.310751869E1
1.300071833E1,6.682852936E0,-8.172704773E0,1.893113251E0,1.072555381E1
1.301068633E1,5.461093597E0,-6.811585236E0,1.479822693E0,8.855004907E0
1.302065433E1,4.320315857E0,-5.767805786E0,8.527766418E-1,7.256716936E0
1.303062333E1,3.911815338E0,-4.871619415E0,-1.426533508E-1,6.249425969E0
1.304059133E1,4.172722778E0,-4.439917145E0,-1.426533508E-1,6.094655824E0
1.305055933E1,4.938829651E0,-4.712949371E0,1.672023010E-1,6.828754404E0
1.306052833E1,6.149512024E0,-5.702541504E0,7.556286621E-1,8.420596915E0
1.307049633E1,6.839876404E0,-6.707551575E0,1.070424042E0,9.639552115E0
1.308046433E1,7.107968903E0,-7.096442871E0,8.987310791E-1,1.008416783E1
1.309043333E1,6.977290649E0,-7.076683960E0,1.736389160E-1,9.939426098E0
1.310040133E1,6.542594604E0,-6.744674377E0,-7.406597900E-1,9.425749495E0
1.311036933E1,5.976322174E0,-6.232888641E0,-1.263971558E0,8.727138800E0
1.312033733E1,5.416785736E0,-5.788612518E0,-1.658700714E0,8.099437675E0
1.313030633E1,4.589605865E0,-5.665119324E0,-1.543889465E0,7.452627297E0
1.314027433E1,3.837719421E0,-5.747897186E0,-1.307680664E0,7.033949185E0
1.315024233E1,3.441643066E0,-5.927074585E0,-9.854008484E-1,6.924314765E0
1.316021133E1,3.254681854E0,-6.264772339E0,-8.464897156E-1,7.110335524E0
1.317017933E1,3.749552765E0,-6.738237762E0,-7.435038757E-1,7.746986001E0
1.318014733E1,5.086123352E0,-7.146438904E0,8.532257080E-2,8.771973535E0
1.319011633E1,6.335874481E0,-7.330556030E0,7.358697510E-1,9.717091203E0
1.320008433E1,7.011269989E0,-7.526797943E0,1.132395172E0,1.034857058E1
1.321005233E1,7.399113464E0,-7.908953247E0,1.963317261E0,1.100695399E1
1.322002133E1,8.036488037E0,-8.438402252E0,2.102378082E0,1.184110494E1
1.322998933E1,9.484726410E0,-8.607101440E0,2.224673767E0,1.299966937E1
1.323995733E1,1.124611359E1,-8.205636292E0,2.240391083E0,1.410059892E1
1.324992633E1,1.221894058E1,-7.247179413E0,1.791474609E0,1.431899087E1
1.325989433E1,1.189995392E1,-6.047574005E0,1.331331482E0,1.341471200E1
1.326986233E1,1.085767136E1,-5.177433472E0,9.352551270E-1,1.206522054E1
1.327983133E1,1.032867142E1,-4.746479645E0,1.189276886E0,1.142912515E1
1.328979933E1,1.137200180E1,-4.760849762E0,1.336720276E0,1.240060226E1
1.329976733E1,1.315644104E1,-5.666765900E0,3.686833191E-1,1.432969309E1
1.330973633E1,1.287712189E1,-6.781647491E0,-9.148974609E-1,1.458245686E1
1.331970433E1,1.061996567E1,-7.655380554E0,-1.250349884E0,1.315111771E1
1.332967233E1,8.776848450E0,-8.479866028E0,-2.456391907E-1,1.220661850E1
1.333964133E1,8.075856171E0,-9.579030304E0,1.218017120E0,1.258812298E1
1.334960933E1,8.108338623E0,-1.100661163E1,2.694696350E0,1.393384524E1
1.335957733E1,8.179291077E0,-1.299926788E1,3.119662628E0,1.567207909E1
1.336954633E1,7.789801025E0,-1.564217194E1,3.125650177E0,1.775185151E1
1.337951433E1,6.812782745E0,-1.860750549E1,3.638334045E0,2.014673036E1
1.338948233E1,5.798042908E0,-2.128723297E1,3.981420593E0,2.241908337E1
1.339945133E1,5.514831848E0,-2.286106018E1,3.075205078E0,2.371704723E1
1.340941933E1,6.431824951E0,-2.309637085E1,8.273295593E-1,2.398948088E1
1.341938733E1,7.375911713E0,-2.191757217E1,-1.118923187E0,2.315245198E1
1.342935633E1,7.054530029E0,-1.955069412E1,-1.731299744E0,2.085649619E1
1.343932433E1,5.755082245E0,-1.641306885E1,-1.004111938E0,1.742176918E1
1.344929233E1,4.517904968E0,-1.320928116E1,2.972817993E-1,1.396370117E1
1.345926133E1,3.802841949E0,-1.036848862E1,9.087602234E-1,1.108120067E1
1.346922933E1,3.523073730E0,-8.241411896E0,9.398954773E-1,9.012009879E0
1.347919733E1,3.759881287E0,-6.818919983E0,6.728507996E-1,7.815824027E0
1.348916533E1,4.350253601E0,-5.887706451E0,2.960842896E-1,7.326490262E0
1.349913433E1,5.175786896E0,-5.247338104E0,-4.790039062E-3,7.370437580E0
1.350910233E1,5.618266754E0,-4.899311829E0,-4.733157349E-1,7.469418016E0
1.351907033E1,5.403313751E0,-4.859494629E0,-6.915618896E-1,7.299914067E0
1.352903933E1,4.660408630E0,-4.947212219E0,-3.245251465E-1,6.804383434E0
1.353900733E1,3.911815338E0,-4.810247040E0,1.541793823E-1,6.201979289E0
1.354897533E1,3.294798431E0,-4.705764313E0,4.273612976E-1,5.760429858E0
1.355894433E1,2.713257751E0,-4.626728668E0,5.812413025E-1,5.395018744E0
1.356891233E1,2.064506836E0,-4.533921661E0,7.884104919E-1,5.043830411E0
1.357888033E1,1.398092651E0,-4.450545044E0,1.143921204E0,4.803183316E0
1.358884933E1,7.128176880E-1,-4.284989319E0,1.542841644E0,4.609729152E0
1.359881733E1,6.601272583E-2,-4.122127991E0,1.761087799E0,4.483048861E0
1.360878533E1,-4.920268250E-1,-3.938759308E0,1.842219086E0,4.376035471E0
1.361875433E1,-1.009201355E0,-3.694617004E0,1.983375549E0,4.313057008E0
1.362872233E1,-1.667083282E0,-3.463198242E0,2.069895630E0,4.365475536E0
1.363869033E1,-2.490520935E0,-3.325783997E0,2.217638397E0,4.709719077E0
1.364865933E1,-3.243006134E0,-3.237467651E0,2.597099304E0,5.267182394E0
1.365862733E1,-3.856280823E0,-3.115770721E0,2.995570679E0,5.792440994E0
1.366859533E1,-3.868854675E0,-2.983595581E0,3.006797333E0,5.736785624E0
1.367856433E1,-2.997516632E0,-3.077151031E0,2.163151703E0,4.809697467E0
1.368853233E1,-1.585652618E0,-3.615731049E0,5.813909912E-1,3.990716819E0
1.369850033E1,1.130149841E-1,-4.247716827E0,-1.520538025E0,4.513081710E0
1.370846933E1,2.087109833E0,-4.930447083E0,-5.012027435E0,7.333877208E0
1.371843733E1,4.904700623E0,-6.379284210E0,-1.262534546E1,1.497166334E1
1.372840533E1,1.082728455E1,-9.322164459E0,-2.147329605E1,2.579215548E1
1.373837333E1,2.096645004E1,-1.056817337E1,-2.357642258E1,3.327350323E1
1.374834233E1,3.008339127E1,-1.089659042E1,-5.080435181E0,3.239686612E1
1.375831033E1,3.314931564E1,-1.349758163E1,7.270231476E0,3.652284358E1
1.376827833E1,2.952175919E1,-1.715597397E1,-1.635049896E0,3.418384262E1
1.377824733E1,1.755953476E1,-1.720971222E1,-6.665938110E0,2.547442220E1
1.378821533E1,1.110226273E1,-1.038285873E1,-4.224664764E0,1.577693841E1
1.379818333E1,8.168962555E0,-3.401975555E0,-6.541397095E-1,8.873177878E0
1.380815233E1,4.892276459E0,-2.357896729E0,2.065404968E0,5.810330766E0
1.381812033E1,3.702849884E0,-5.913752289E0,3.119962006E0,7.643148979E0
1.382808833E1,3.738924866E0,-9.566157074E0,2.167342987E0,1.049706130E1
1.383805733E1,3.439846802E0,-1.414229095E1,-1.488504639E0,1.463053606E1
1.384802533E1,2.934797058E0,-2.040332108E1,-8.514593811E0,2.230261986E1
1.385799333E1,2.986589355E0,-2.504397079E1,-8.721912689E0,2.668692470E1
1.386796233E1,5.294939117E0,-2.383882690E1,-3.572471008E0,2.467972037E1
1.387793033E1,5.923182678E0,-1.794782730E1,1.646276550E0,1.897152667E1
1.388789833E1,4.063899078E0,-1.153591095E1,3.432062988E0,1.270321115E1
1.389786733E1,2.124532013E0,-7.146289215E0,3.876339111E0,8.402921559E0
1.390783533E1,8.198451233E-1,-4.758604431E0,4.485572205E0,6.590661588E0
1.391780333E1,2.050735474E-2,-3.292403412E0,4.677323456E0,5.719938416E0
1.392777133E1,-4.564009094E-1,-2.476150818E0,4.404889984E0,5.073724513E0
1.393773733E1,-3.984713745E-1,-2.195933533E0,3.861968994E0,4.460460517E0
1.394770533E1,-3.367996216E-2,-2.647544403E0,3.447480927E0,4.346924251E0
1.395767333E1,4.580474854E-1,-4.111500092E0,3.494932251E0,5.415606332E0
1.396764233E1,1.207389221E0,-5.998625793E0,2.701282654E0,6.688664150E0
1.397761033E1,2.482886810E0,-7.911647644E0,1.954036560E0,8.519222631E0
1.398757833E1,3.920048218E0,-9.996362457E0,1.741927643E0,1.087788363E1
1.399754733E1,5.677543488E0,-1.164323776E1,1.913470917E0,1.309430627E1
1.400751533E1,7.337591400E0,-1.270318359E1,2.114802246E0,1.482172424E1
1.401748333E1,8.094118195E0,-1.306857376E1,3.315156097E0,1.572554067E1
1.402745233E1,8.077802124E0,-1.206326431E1,4.087549896E0,1.508248312E1
1.403742033E1,7.778274994E0,-9.967023468E0,1.393901367E0,1.271951570E1
1.404738833E1,7.084318085E0,-8.292455750E0,-5.104385376E-2,1.090664892E1
1.405735733E1,5.893244934E0,-6.974596252E0,-8.282276917E-1,9.168494415E0
1.406732533E1,4.313430176E0,-5.617817688E0,-1.104104004E0,7.168305316E0
1.407729333E1,3.112178192E0,-4.257296906E0,-1.164877625E0,5.400663841E0
1.408726233E1,2.387535095E0,-3.557502136E0,-1.442400513E0,4.520692925E0
1.409723033E1,1.763782196E0,-3.722758484E0,-1.535506897E0,4.396321166E0
1.410719833E1,1.700912933E0,-4.564308472E0,-9.644444275E-1,4.965497929E0
1.411716633E1,2.522254944E0,-5.744005280E0,7.634124756E-2,6.273850065E0
1.412713533E1,3.528163147E0,-6.666237488E0,1.076860657E0,7.618811345E0
1.413710333E1,4.201912079E0,-7.452702026E0,2.058968353E0,8.799896777E0
1.414707133E1,4.705315247E0,-8.268804932E0,2.485581207E0,9.833170420E0
1.415704033E1,5.318140869E0,-9.054670715E0,1.442101135E0,1.059949715E1
1.416700833E1,5.814957733E0,-9.560917969E0,-5.819897461E-1,1.120551641E1
1.417697633E1,5.613476715E0,-9.398356018E0,-2.246528320E0,1.117528998E1
1.418694533E1,4.998106384E0,-8.748407593E0,-2.169139252E0,1.030635085E1
1.419691333E1,4.861141205E0,-8.064928894E0,-7.550299072E-1,9.446895894E0
1.420688133E1,5.080884247E0,-7.624993744E0,5.349874878E-1,9.178350938E0
1.421685033E1,5.346132660E0,-7.280709686E0,1.216969299E0,9.114322917E0
1.422681833E1,5.719306641E0,-6.853498077E0,1.466500397E0,9.046078032E0
1.423678633E1,6.224506073E0,-6.509214020E0,1.552272034E0,9.139140631E0
1.424675533E1,7.107819214E0,-6.336772614E0,1.387464752E0,9.622933003E0
1.425672333E1,8.152796173E0,-6.400540009E0,8.120613098E-1,1.039684767E1
1.426669133E1,9.004375305E0,-6.636748810E0,8.487350464E-2,1.118626001E1
1.427665933E1,9.589957581E0,-7.041507111E0,8.143066406E-2,1.189776196E1
1.428662833E1,1.004276596E1,-7.437733154E0,1.262774048E0,1.256071737E1
1.429659633E1,1.063747925E1,-7.434589691E0,2.492017822E0,1.321511413E1
1.430656433E1,1.107127716E1,-7.090904388E0,2.899470520E0,1.346332174E1
1.431653333E1,1.101559296E1,-6.588399353E0,2.141446838E0,1.301292007E1
1.432650133E1,1.065095123E1,-6.027815094E0,3.321592712E-1,1.224286105E1
1.433646933E1,1.025083328E1,-5.584586792E0,-1.569785614E0,1.177843026E1
1.434643833E1,1.108744354E1,-5.476810913E0,-2.565664673E0,1.262970694E1
1.435640633E1,1.246622635E1,-5.944139099E0,-2.034718781E0,1.395993086E1
1.436637433E1,1.200174225E1,-6.276448059E0,-2.622546387E-1,1.354637940E1
1.437634333E1,1.027493317E1,-6.489455109E0,1.077609100E0,1.220034920E1
1.438631133E1,8.841064911E0,-7.082222443E0,1.615141296E0,1.144250781E1
1.439627933E1,8.635691986E0,-8.314909058E0,1.771266632E0,1.211817949E1
1.440624833E1,9.853559418E0,-1.084330124E1,1.279988251E0,1.470741938E1
1.441621633E1,1.101604202E1,-1.453252945E1,1.119971008E0,1.827024710E1
1.442618433E1,1.070364166E1,-1.865705246E1,2.750081177E0,2.168447596E1
1.443615233E1,9.109307098E0,-2.270194107E1,4.829556885E0,2.493355618E1
1.444612133E1,6.943910065E0,-2.566892120E1,5.699398041E0,2.719548751E1
1.445608933E1,5.248685303E0,-2.660133224E1,4.135300598E0,2.742772841E1
1.446605733E1,4.963378601E0,-2.498439468E1,7.682025146E-1,2.548421551E1
1.447602633E1,4.887336731E0,-2.161924255E1,-1.926942902E0,2.224838911E1
1.448599433E1,4.325255585E0,-1.788690399E1,-2.450853424E0,1.856490918E1
1.449596233E1,3.833378448E0,-1.415606232E1,-1.364861755E0,1.472928166E1
1.450593133E1,3.953428802E0,-1.071007828E1,-4.296066284E-1,1.142453228E1
1.451589933E1,3.929628296E0,-8.458759918E0,-5.010081482E-1,9.340428634E0
1.452586733E1,3.588787079E0,-7.889942780E0,-1.098715210E-1,8.668486691E0
1.453583633E1,3.684887238E0,-7.538174286E0,8.797206116E-1,8.436609145E0
1.454580433E1,4.500990143E0,-6.785689087E0,9.717791748E-1,8.200539215E0
1.455577233E1,5.482050018E0,-5.585185547E0,2.571652222E-1,7.830281218E0
1.456574133E1,6.219865723E0,-4.582271118E0,-4.805007935E-1,7.740466344E0
1.457570933E1,6.025120697E0,-4.297114105E0,-4.927752686E-1,7.416879163E0
1.458567733E1,5.289700012E0,-4.255201263E0,-6.227050781E-2,6.789075167E0
1.459564633E1,4.434528351E0,-4.157903595E0,3.135978699E-1,6.086998244E0
1.460561433E1,3.560495911E0,-4.144730988E0,6.098318481E-1,5.497983355E0
1.461558233E1,2.816842346E0,-4.217180328E0,9.407936096E-1,5.157935957E0
1.462555033E1,2.156266022E0,-4.181853790E0,1.292711792E0,4.879394231E0
1.463551933E1,1.344953156E0,-4.100722504E0,1.557211761E0,4.587998748E0
1.464548733E1,4.867877197E-1,-3.923640747E0,1.744472351E0,4.321469979E0
1.465545533E1,-2.157014465E-1,-3.547472992E0,1.735790405E0,3.955257270E0
1.466542433E1,-7.991880798E-1,-3.135829010E0,1.740430756E0,3.674401228E0
1.467539233E1,-1.477727051E0,-2.813100128E0,1.984273682E0,3.746271695E0
1.468536033E1,-2.483784943E0,-2.620750122E0,2.422861633E0,4.348307411E0
1.469532933E1,-3.695964203E0,-2.598446503E0,3.030148773E0,5.440025478E0
1.470529733E1,-4.637506256E0,-2.712658997E0,3.904630280E0,6.641620339E0
1.471526533E1,-5.026098175E0,-2.799777832E0,4.469854889E0,7.285603716E0
1.472523433E1,-4.840484161E0,-2.985541534E0,3.455863495E0,6.654828147E0
1.473520233E1,-3.898942108E0,-3.368744659E0,1.049018555E0,5.258386641E0
1.474517033E1,-2.275418243E0,-4.162993011E0,-1.819765778E0,5.081297716E0
1.475513933E1,4.403842163E-1,-5.144202576E0,-6.751560059E0,8.499430665E0
1.476510733E1,4.885690155E0,-6.866371307E0,-1.985575974E1,2.157007691E1
1.477507533E1,1.358020981E1,-9.813891907E0,-2.713347565E1,3.188981144E1
1.478504433E1,2.482168304E1,-1.034184402E1,-2.126777344E1,3.428393026E1
1.479501233E1,3.145768341E1,-1.093296478E1,2.890489197E0,3.342858795E1
1.480498033E1,3.472628632E1,-1.399664383E1,1.134071686E1,3.912074716E1
1.481494933E1,2.990481262E1,-1.828567474E1,-2.491568756E0,3.514074037E1
1.482491733E1,1.675181442E1,-1.884012177E1,-9.380393372E0,2.689916828E1
1.483488533E1,9.880054321E0,-1.218870346E1,-4.619693298E0,1.635608546E1
1.484485433E1,6.707850952E0,-4.648732910E0,2.468367004E-1,8.164980736E0
1.485482233E1,3.683689728E0,-3.011737061E0,3.128344574E0,5.694442019E0
1.486479033E1,2.787802734E0,-6.350693665E0,3.670217743E0,7.846888070E0
1.487475833E1,2.856809235E0,-1.007030869E1,1.032702484E0,1.051850514E1
1.488472733E1,2.317181396E0,-1.441502380E1,-5.982609100E0,1.577827153E1
1.489469533E1,5.339396667E-1,-2.012415161E1,-1.435844147E1,2.472713916E1
1.490466333E1,1.839225311E0,-2.241094620E1,-8.906029816E0,2.418575255E1
1.491463233E1,6.059549103E0,-2.079296082E1,-4.071533203E-1,2.166174343E1
1.492460033E1,6.376589813E0,-1.769245834E1,3.455264740E0,1.912126655E1
1.493456796E1,4.057163086E0,-1.345521973E1,4.658911743E0,1.480570731E1
1.494453696E1,2.496658173E0,-9.567504272E0,5.260510712E0,1.120015236E1
1.495450496E1,1.832788696E0,-6.883585510E0,5.252726898E0,8.850649905E0
1.496447296E1,1.559756470E0,-5.171894989E0,5.008135529E0,7.366326051E0
1.497444196E1,1.258433075E0,-4.241729279E0,5.045707397E0,6.710818446E0
1.498440996E1,8.592132568E-1,-3.802093506E0,5.020110626E0,6.355759054E0
1.499437796E1,4.577481079E-1,-3.717968445E0,4.305047607E0,5.706685342E0
1.500434696E1,2.098635864E-1,-4.298012238E0,3.317551117E0,5.433516111E0
1.501431496E1,4.185296631E-1,-5.587879944E0,2.378553772E0,6.087453276E0
1.502428296E1,1.521735535E0,-7.392826538E0,1.473236389E0,7.690252838E0
1.503425196E1,3.373684387E0,-9.201365662E0,1.064436493E0,9.857986682E0
1.504421996E1,5.387746124E0,-1.062700104E1,1.179696808E0,1.197299645E1
1.505418796E1,6.942413177E0,-1.172766220E1,1.448238373E0,1.370520178E1
1.506415696E1,7.762857056E0,-1.221923996E1,2.196232910E0,1.464224074E1
1.507412496E1,7.696544952E0,-1.175310928E1,4.191134491E0,1.466076363E1
1.508409296E1,7.512427826E0,-1.024304947E1,3.218008118E0,1.310390058E1
1.509406096E1,7.356302490E0,-8.526568909E0,1.296454010E0,1.133571156E1
1.510402996E1,6.567143555E0,-7.220534821E0,3.052153015E-1,9.765073166E0
1.511399796E1,5.233417053E0,-5.992638245E0,-1.802252197E-1,7.958193785E0
1.512396596E1,3.719764709E0,-4.919968872E0,-3.565585327E-1,6.178177497E0
1.513393496E1,2.411934357E0,-4.290827179E0,-5.825885010E-1,4.956615234E0
1.514390296E1,1.384021912E0,-4.169579315E0,-1.463806000E0,4.630727407E0
1.515387096E1,7.720944214E-1,-4.851710815E0,-2.474653931E0,5.500830820E0
1.516383996E1,1.105002136E0,-5.985602875E0,-2.085014191E0,6.433953347E0
1.517380796E1,2.257904663E0,-6.812183990E0,-9.328601074E-1,7.237002982E0
1.518377596E1,3.514092407E0,-7.216493225E0,1.393601990E-1,8.027829170E0
1.519374496E1,4.675078125E0,-7.613767090E0,8.619076538E-1,8.976006327E0
1.520371296E1,5.782475281E0,-8.141419830E0,6.988966370E-1,1.001040427E1
1.521368096E1,6.527476044E0,-8.635242920E0,-1.026864624E-1,1.082524403E1
1.522364996E1,6.440057831E0,-8.969198456E0,-8.415499878E-1,1.107380116E1
1.523361796E1,5.798342285E0,-8.860524445E0,-8.684939575E-1,1.062468580E1
1.524358596E1,5.427114258E0,-8.544381866E0,-2.278262329E-1,1.012481780E1
1.525355496E1,5.550757141E0,-8.183632050E0,4.641847229E-1,9.899404316E0
1.526352296E1,5.997428284E0,-7.802225189E0,1.002914429E0,9.891900792E0
1.527349096E1,6.509513397E0,-7.312593384E0,1.404978333E0,9.890487894E0
1.528345996E1,6.908733215E0,-6.805298309E0,1.528321838E0,9.817252536E0
1.529342796E1,7.454198914E0,-6.478677521E0,1.312171326E0,9.962938194E0
1.530339596E1,8.355624390E0,-6.383625183E0,8.428971863E-1,1.054882008E1
1.531336496E1,9.352700958E0,-6.548731842E0,3.359014893E-1,1.142242241E1
1.532333296E1,1.000414627E1,-6.978937225E0,2.662962341E-1,1.220079592E1
1.533330096E1,1.042986099E1,-7.406897278E0,1.102756805E0,1.283978972E1
1.534326896E1,1.088446564E1,-7.465874634E0,2.275567932E0,1.339362108E1
1.535323796E1,1.116423386E1,-7.098239136E0,2.998564453E0,1.356526834E1
1.536320596E1,1.100107315E1,-6.546935577E0,2.847378845E0,1.311463085E1
1.537317396E1,1.058703415E1,-5.956862640E0,1.499282227E0,1.223998986E1
1.538314296E1,1.041429337E1,-5.626799011E0,-5.361849976E-1,1.184929820E1
1.539311096E1,1.158620636E1,-5.891149292E0,-2.103575592E0,1.316703642E1
1.540307896E1,1.357347382E1,-6.740483093E0,-3.635639648E0,1.558496646E1
1.541304796E1,1.282143768E1,-7.246580658E0,-3.222798157E0,1.507609444E1
1.542301596E1,9.919123077E0,-7.019053802E0,-3.308120728E-1,1.215588563E1
1.543298396E1,7.950716400E0,-6.719077606E0,1.324146423E0,1.049348650E1
1.544295296E1,7.577692108E0,-7.015910339E0,1.874402161E0,1.049560856E1
1.545292096E1,8.172704773E0,-8.462801514E0,1.512305145E0,1.186166850E1
1.546288896E1,9.306746521E0,-1.148292114E1,7.705975342E-1,1.480090637E1
1.547285796E1,1.025382706E1,-1.514819916E1,1.265468445E0,1.833603876E1
1.548282596E1,1.017030075E1,-1.875330231E1,3.106340332E0,2.155854158E1
1.549279396E1,8.834927673E0,-2.188658661E1,5.038073273E0,2.413422472E1
1.550276196E1,7.007378082E0,-2.364632721E1,5.764662323E0,2.532752396E1
1.551273096E1,5.580245819E0,-2.378493896E1,4.403243408E0,2.482440367E1
1.552269896E1,5.438640289E0,-2.229523682E1,1.152902527E0,2.297793675E1
1.553266696E1,5.761668549E0,-1.948049011E1,-1.585053864E0,2.037642548E1
1.554263596E1,5.392386475E0,-1.609932129E1,-1.689985657E0,1.706229848E1
1.555260396E1,5.102589111E0,-1.251771927E1,-4.867877197E-1,1.352651742E1
1.556257196E1,5.518424377E0,-9.178014221E0,-3.032693481E-1,1.071358600E1
1.557254096E1,5.773344269E0,-7.241640930E0,6.436614990E-3,9.261366467E0
1.558250896E1,5.920338593E0,-6.690636749E0,1.719923401E-1,8.935581152E0
1.559247696E1,6.001469879E0,-6.309379578E0,-3.168910217E-1,8.713571672E0
1.560244596E1,5.783523102E0,-6.074817352E0,-6.882687378E-1,8.415833838E0
1.561241396E1,5.520819397E0,-5.632187805E0,-5.595364380E-1,7.906583795E0
1.562238196E1,5.260510712E0,-4.987628174E0,-3.143463135E-2,7.249165185E0
1.563235096E1,4.443359985E0,-4.777315521E0,4.090992737E-1,6.537090619E0
1.564231896E1,3.328628082E0,-4.740043030E0,6.536906433E-1,5.828814999E0
1.565228696E1,2.953807526E0,-4.245621185E0,8.735833740E-1,5.245324209E0
1.566225496E1,2.895129547E0,-3.729793854E0,1.036594391E0,4.834011297E0
1.567222396E1,2.285148010E0,-3.760629730E0,1.213676147E0,4.564783367E0
1.568219196E1,1.286275177E0,-4.058959351E0,1.363664246E0,4.470932231E0
1.569215996E1,4.622387695E-1,-4.112398224E0,1.385818176E0,4.364169549E0
1.570212896E1,-1.594184875E-1,-4.118086395E0,1.247805176E0,4.305933995E0
1.571209696E1,-5.417234802E-1,-4.139491882E0,1.229543152E0,4.352083838E0
1.572206496E1,-8.744815063E-1,-4.064647522E0,1.426234131E0,4.395477355E0
1.573203396E1,-1.450633392E0,-3.840264130E0,1.666783905E0,4.430590752E0
1.574200196E1,-2.425855408E0,-3.647015991E0,1.920057220E0,4.782480510E0
1.575196996E1,-3.581751709E0,-3.508703613E0,2.225871277E0,5.485840801E0
1.576193896E1,-4.541406097E0,-3.397634583E0,2.337539063E0,6.134523532E0
1.577190696E1,-4.787045288E0,-3.334765320E0,2.030677185E0,6.177387163E0
1.578187496E1,-4.136198730E0,-3.419638824E0,9.852511597E-1,5.456444765E0
1.579184396E1,-2.734513550E0,-3.791166229E0,-6.963519287E-1,4.726035520E0
1.580181196E1,-3.713777161E-1,-4.862488403E0,-2.529140625E0,5.493474964E0
1.581177996E1,2.740650787E0,-6.084397430E0,-5.292095032E0,8.516884915E0
1.582174896E1,6.749015350E0,-7.458390198E0,-1.110675339E1,1.498455082E1
1.583171696E1,1.431697769E1,-1.018811371E1,-2.259970367E1,2.862726179E1
1.584168496E1,2.689157867E1,-1.143666733E1,-1.894699951E1,3.482733343E1
1.585165296E1,3.381138885E1,-1.229273712E1,1.274000702E0,3.599922888E1
1.586162196E1,3.207065872E1,-1.481274673E1,8.695417786E-1,3.533695968E1
1.587158996E1,2.239268417E1,-1.564307007E1,-5.402415619E0,2.784464114E1
1.588155796E1,1.441981384E1,-1.136766083E1,-4.950505371E0,1.901741958E1
1.589152696E1,1.138936569E1,-4.378395081E0,-2.033970337E0,1.237032860E1
1.590149496E1,8.193810883E0,-1.347048798E0,1.428329773E0,8.425746447E0
1.591146296E1,6.407276001E0,-5.618865509E0,2.667902069E0,8.929867682E0
1.592143196E1,7.278614044E0,-1.143621826E1,2.350262604E0,1.375823553E1
1.593140000E1,7.992629242E0,-1.493324615E1,1.347797241E0,1.699118949E1
1.594136800E1,7.950866089E0,-1.900013901E1,-3.682043152E0,2.092316887E1
1.595133600E1,6.236630859E0,-2.333153183E1,-9.840536499E0,2.607857551E1
1.596130500E1,3.891757050E0,-2.248115021E1,-8.860674133E0,2.447569067E1
1.597127300E1,2.714455261E0,-1.569605988E1,-3.383114777E0,1.628434919E1
1.598124100E1,9.830058289E-1,-1.000100281E1,8.033793640E-1,1.008125865E1
1.599121000E1,-6.976991272E-1,-6.851701813E0,3.085832977E0,7.546851460E0
1.600117800E1,-1.570084991E0,-5.068011017E0,4.155807953E0,6.739483830E0
1.601114600E1,-1.870360565E0,-3.986809387E0,3.707939301E0,5.756883844E0
1.602111500E1,-1.984123993E0,-3.314257965E0,3.046614532E0,4.919645718E0
1.603108300E1,-1.453327789E0,-3.203937378E0,2.916085968E0,4.569566036E0
1.604105100E1,-6.658154297E-1,-3.776347046E0,3.056643677E0,4.903792182E0
1.605102000E1,-8.187973022E-2,-4.966072998E0,3.073408813E0,5.840755691E0
1.606098800E1,5.415737915E-1,-6.562054138E0,3.416495361E0,7.417971235E0
1.607095600E1,1.351988525E0,-8.490194550E0,3.836372223E0,9.414299140E0
1.608092400E1,2.587968292E0,-1.036788986E1,3.848047943E0,1.135773714E1
1.609089300E1,4.070784760E0,-1.186881866E1,3.666924591E0,1.307235560E1
1.610086100E1,5.849984894E0,-1.262609390E1,3.419788513E0,1.432953328E1
1.611082900E1,7.331154785E0,-1.263028519E1,2.761158142E0,1.486250075E1
1.612079800E1,7.844587097E0,-1.202973404E1,2.873274994E0,1.464608333E1
1.613076600E1,7.628436584E0,-1.069241501E1,3.316353607E0,1.354691790E1
1.614073400E1,7.869884491E0,-9.007069702E0,1.783541107E0,1.209311397E1
1.615070300E1,8.223898315E0,-7.604935455E0,1.281335449E-1,1.120196255E1
1.616067100E1,7.884254608E0,-6.465953979E0,-7.822732544E-1,1.022653329E1
1.617063900E1,6.907386017E0,-5.383704529E0,-1.123713226E0,8.829438683E0
1.618060700E1,5.648952942E0,-4.459226990E0,-1.082548828E0,7.277862780E0
1.619057600E1,4.515060883E0,-3.789819031E0,-1.112187195E0,5.998788496E0
1.620054400E1,3.354823608E0,-3.653751984E0,-1.596130829E0,5.210794433E0
1.621051200E1,2.585124207E0,-4.445605316E0,-2.076032867E0,5.545826021E0
1.622048100E1,2.729873199E0,-5.669460297E0,-1.712588654E0,6.521345539E0
1.623044900E1,3.231180725E0,-6.528074799E0,-1.105600891E0,7.367404074E0
1.624041700E1,3.730691986E0,-6.986571350E0,-5.462141418E-1,7.939054844E0
1.625038600E1,4.649780731E0,-7.288044434E0,5.089416504E-2,8.645151400E0
1.626035400E1,5.996829529E0,-7.803273010E0,3.382965088E-1,9.847206639E0
1.627032200E1,6.771019592E0,-8.421188049E0,1.667532349E-1,1.080698483E1
1.628029100E1,6.480174408E0,-8.678952026E0,-2.058219910E-1,1.083324657E1
1.629025900E1,5.885610809E0,-8.626710663E0,-5.716612244E-1,1.045884066E1
1.630022700E1,5.699996796E0,-8.497529297E0,-7.262896729E-1,1.025794640E1
1.631019500E1,5.417384491E0,-8.183931427E0,-7.348219299E-1,9.841989209E0
1.632016400E1,5.245691528E0,-7.799680481E0,-4.788542175E-1,9.411779671E0
1.633013200E1,5.414989471E0,-7.489226074E0,-1.637594604E-1,9.243237275E0
1.634010000E1,5.972130890E0,-7.223378906E0,1.420545959E-1,9.373565474E0
1.635006900E1,6.689588928E0,-6.997498627E0,5.075944519E-1,9.693979533E0
1.636003700E1,7.423961792E0,-6.978039093E0,8.659492493E-1,1.022536583E1
1.637000500E1,8.174351349E0,-7.143295441E0,1.059646454E0,1.090731591E1
1.637997400E1,8.666078796E0,-7.355104980E0,1.134490814E0,1.142302764E1
1.638994200E1,9.140292664E0,-7.415878601E0,1.428479462E0,1.185667571E1
1.639991000E1,1.005489075E1,-7.219037933E0,2.036365356E0,1.254440594E1
1.640987800E1,1.117695740E1,-6.800807648E0,2.697839813E0,1.335865641E1
1.641984700E1,1.175655212E1,-6.215375061E0,3.110082550E0,1.365723319E1
1.642981500E1,1.169428162E1,-5.565276947E0,3.148402863E0,1.332820208E1
1.643978300E1,1.143846359E1,-5.128185883E0,2.285447388E0,1.274205672E1
1.644975200E1,1.184891006E1,-5.207670593E0,6.002517700E-1,1.295672817E1
1.645972000E1,1.352377716E1,-5.937403107E0,-2.150877228E0,1.492553440E1
1.646968800E1,1.425665314E1,-6.664291534E0,-5.114564209E0,1.654761939E1
1.647965700E1,1.201251984E1,-6.867269440E0,-4.503534851E0,1.455135212E1
1.648962500E1,9.299262085E0,-6.715485077E0,-1.794618073E0,1.161011064E1
1.649959300E1,8.195307770E0,-6.649921417E0,-3.688330078E-1,1.056032964E1
1.650956100E1,8.396938477E0,-7.401658173E0,3.529660034E-1,1.119900462E1
1.651953000E1,9.340426483E0,-9.487420807E0,5.767506409E-1,1.332619082E1
1.652949800E1,1.002540207E1,-1.253628067E1,1.054557037E0,1.608661276E1
1.653946600E1,9.918674011E0,-1.592987366E1,2.116897888E0,1.888444401E1
1.654943500E1,9.483079834E0,-1.918290894E1,3.734284515E0,2.172228531E1
1.655940300E1,8.374185791E0,-2.197819611E1,4.809498596E0,2.400623603E1
1.656937100E1,6.841522980E0,-2.366054764E1,4.465663605E0,2.503138236E1
1.657933900E1,5.499413910E0,-2.342987732E1,3.672014008E0,2.434515129E1
1.658930800E1,4.734654236E0,-2.134471344E1,2.073787537E0,2.196165607E1
