"Time (s)","Acceleration x (m/s^2)","Acceleration y (m/s^2)","Acceleration z (m/s^2)","Absolute acceleration (m/s^2)"
2.796416695E-3,-1.874701538E0,4.437222748E0,9.109905853E0,1.030503936E1
1.276341669E-2,-1.780996399E0,4.434079285E0,8.597970428E0,9.836569664E0
2.273041668E-2,-1.479673004E0,4.610562286E0,8.423433380E0,9.716014960E0
3.269741667E-2,-1.076112213E0,4.557123413E0,8.423732758E0,9.637669058E0
4.266341671E-2,-1.182840271E0,4.311933289E0,8.412057037E0,9.526520004E0
5.263041670E-2,-9.527687073E-1,4.350702667E0,8.631201324E0,9.712570114E0
6.259741669E-2,-1.219813385E0,4.249962158E0,9.031019897E0,1.005531916E1
7.256441668E-2,-1.307530975E0,4.263284454E0,9.231004028E0,1.025166655E1
8.253141667E-2,-1.273851013E0,4.239184570E0,9.757459259E0,1.071454121E1
9.249841666E-2,-1.087338867E0,3.975133667E0,1.018227585E1,1.098465907E1
1.024654167E-1,-3.876937866E-1,3.800446930E0,1.103774689E1,1.168013526E1
1.124324167E-1,-1.338516541E0,3.579506378E0,1.106184677E1,1.170337329E1
1.223994167E-1,-1.706152039E0,3.470682678E0,1.126946503E1,1.191458917E1
1.323664167E-1,-6.789880371E-1,3.107388153E0,1.119222565E1,1.163541150E1
1.423334167E-1,5.069956970E-1,3.301235046E0,1.120375168E1,1.169099008E1
1.523004167E-1,1.343306580E0,3.017275543E0,1.058044785E1,1.108396594E1
1.622674167E-1,1.422042847E0,2.532583466E0,9.392518158E0,9.831357089E0
1.722344167E-1,2.142644348E0,2.664309540E0,8.765322418E0,9.408525242E0
1.822014167E-1,2.576591949E0,2.542013855E0,8.461154938E0,9.202814971E0
1.921684167E-1,2.279759216E0,1.966161346E0,8.391699371E0,8.915363754E0
2.021354167E-1,2.405647430E0,1.446142731E0,8.221203918E0,8.687155013E0
2.121024167E-1,2.329755249E0,1.040785675E0,8.151448975E0,8.541493706E0
2.220694167E-1,2.274819489E0,6.327342224E-1,8.380921783E0,8.707181303E0
2.320364167E-1,2.665357361E0,-1.275946655E0,9.962981873E0,1.039197659E1
2.420034167E-1,3.481011200E0,-3.342249756E0,1.537467819E1,1.611424221E1
2.519704167E-1,5.502257996E0,-8.569679260E-1,1.382300491E1,1.490250656E1
2.619364167E-1,7.488926697E-1,2.177970886E-1,9.288185120E0,9.320872203E0
2.719034167E-1,-1.637744293E0,3.887416077E-1,8.185877380E0,8.357147533E0
2.818704167E-1,-5.568420410E-2,3.126997375E-1,7.044351196E0,7.051508040E0
2.918374167E-1,1.166673889E0,-3.588038635E-1,6.169270935E0,6.288860950E0
3.018044167E-1,1.811383209E0,-1.072669373E0,7.143445129E0,7.447183161E0
3.117714167E-1,3.519930267E0,-1.184037781E0,7.542515259E0,8.407222549E0
3.217384167E-1,6.093827820E0,1.646575928E-2,7.114555206E0,9.367598647E0
3.317054167E-1,8.239915009E0,5.881269836E-1,6.266867981E0,1.036897907E1
3.416724167E-1,7.959847412E0,2.082170105E-1,6.182742920E0,1.008111279E1
3.516394167E-1,6.117628326E0,3.562591553E-2,6.375092926E0,8.835635538E0
3.616064167E-1,4.348307648E0,-6.441105652E-1,6.130501556E0,7.543587154E0
3.715734167E-1,3.069516907E0,-1.778601379E0,6.123765564E0,7.077136539E0
3.815404167E-1,2.474504242E0,-3.091670837E0,7.034172363E0,8.072247559E0
3.915074167E-1,1.742825775E0,-4.754562836E0,8.551417236E0,9.938312039E0
4.014744167E-1,1.015188904E0,-6.559359741E0,9.483379211E0,1.157541749E1
4.114414167E-1,9.340576172E-2,-7.729775848E0,9.221124573E0,1.203275935E1
4.214082917E-1,-4.471202087E-1,-8.421936493E0,8.574918365E0,1.202739189E1
4.313752917E-1,-3.110531616E-1,-8.596772919E0,7.683072968E0,1.153390085E1
4.413422917E-1,-6.045927429E-1,-8.806636505E0,7.678282928E0,1.169950459E1
4.513092917E-1,3.339555359E-1,-8.895252228E0,8.308472443E0,1.217652466E1
4.612762917E-1,1.765129395E0,-7.870632935E0,8.971443787E0,1.206438346E1
4.712432917E-1,3.016826477E0,-7.723488922E0,9.648036804E0,1.272156190E1
4.812102917E-1,4.025279388E0,-7.809709625E0,1.048584457E1,1.368018183E1
4.911762917E-1,5.103187866E0,-8.133785706E0,1.084809128E1,1.448730757E1
5.011432917E-1,5.209915924E0,-7.756719818E0,8.985813904E0,1.296359432E1
5.111102917E-1,7.947722626E0,-4.286635895E0,8.088130646E0,1.212268120E1
5.210772917E-1,1.229692841E1,2.748284912E-1,8.413254547E0,1.490210827E1
5.310442917E-1,1.638522675E1,4.132905579E0,9.058562622E0,1.917326578E1
5.410112917E-1,1.807850555E1,6.289620667E0,9.930349731E0,2.156394066E1
5.509782917E-1,1.764650391E1,7.062313843E0,1.113998428E1,2.203121937E1
5.609452917E-1,1.673400146E1,7.929909668E0,1.174742111E1,2.192970987E1
5.709122917E-1,1.690764038E1,9.185348969E0,1.044183609E1,2.189225616E1
5.808792917E-1,1.718785767E1,1.013946487E1,8.180189209E0,2.156725978E1
5.908462917E-1,1.645797546E1,1.076097244E1,5.621260529E0,2.045145604E1
6.008132917E-1,1.643477371E1,1.155686737E1,2.883004761E0,2.029715958E1
6.107802917E-1,1.597253494E1,1.200503540E1,-1.323248291E-1,1.998149787E1
6.207472917E-1,1.545835419E1,1.205263641E1,-2.794838104E0,1.979994643E1
6.307142917E-1,1.504326736E1,1.140388550E1,-6.937772827E0,2.011171771E1
6.406812917E-1,1.417357590E1,8.859776001E0,-9.120683441E0,1.904134320E1
6.506482917E-1,1.095362183E1,4.980592804E0,-4.631668396E0,1.289342809E1
6.606152917E-1,8.477770386E0,1.127904510E0,-2.754122772E0,8.984984783E0
6.705822917E-1,7.137906647E0,-1.404529266E0,-2.104623413E0,7.573100651E0
6.805492917E-1,6.563401337E0,-2.550695801E0,-1.649569702E0,7.232244906E0
6.905162917E-1,6.487958221E0,-2.483635254E0,-5.295986938E-1,6.967246281E0
7.004832917E-1,6.307583313E0,-1.829345856E0,-7.244934082E-2,6.567903959E0
7.104502917E-1,5.858966217E0,-1.231489105E0,-3.183879089E-1,5.995450059E0
7.204172917E-1,5.979914703E0,-9.943821716E-1,-3.189866638E-1,6.070414175E0
7.303842917E-1,5.993835754E0,-9.354048157E-1,4.116439819E-2,6.066526496E0
7.403502917E-1,6.037245483E0,-9.436376953E-1,7.400610352E-1,6.155199060E0
7.503172917E-1,6.362219696E0,-1.300495605E0,1.647474060E0,6.699499911E0
7.602842917E-1,6.476881256E0,-1.675016785E0,1.901944885E0,6.955074865E0
7.702512917E-1,6.386469269E0,-1.538500671E0,1.767524414E0,6.802802113E0
7.802182917E-1,6.956783295E0,-1.443298645E0,2.040706329E0,7.392186896E0
7.901852917E-1,8.039631500E0,-2.207160187E0,2.428250427E0,8.683526409E0
8.001522917E-1,8.912616119E0,-1.762434998E0,2.386487274E0,9.393413901E0
8.101192917E-1,9.924362183E0,-1.706900482E0,1.633253632E0,1.020166611E1
8.200862917E-1,9.632768555E0,-8.488847351E-1,7.000941467E-1,9.695409591E0
8.300532917E-1,1.035052597E1,9.131011963E-2,-1.869612122E-1,1.035261706E1
8.400202917E-1,1.325254120E1,-4.665797424E-1,-1.606159973E-1,1.326172471E1
8.499872917E-1,1.306064026E1,-1.138532410E0,7.691006470E-1,1.313271091E1
8.599542917E-1,1.296468979E1,-1.933678894E0,7.092251587E-1,1.312727297E1
8.699212917E-1,1.290765839E1,-2.736459503E0,3.378474426E-1,1.319886346E1
8.798882917E-1,1.155058044E1,-2.599943390E0,-1.615141296E-1,1.184067992E1
8.898552917E-1,1.104223755E1,-2.981949005E0,-1.880090332E-1,1.143933466E1
8.998222917E-1,1.136481674E1,-3.627855835E0,-5.519023132E-1,1.194257065E1
9.097892917E-1,1.147858017E1,-4.022734680E0,-9.922865295E-1,1.220347613E1
9.197562917E-1,1.183319275E1,-3.435954895E0,-7.620652771E-1,1.234548420E1
9.297232917E-1,1.242581039E1,-3.294199677E0,-6.373745728E-1,1.287084930E1
9.396902917E-1,1.356015152E1,-4.092639313E0,5.164260864E-2,1.416439454E1
9.496572917E-1,1.504835678E1,-4.449197845E0,5.044509888E-1,1.570041000E1
9.596232917E-1,1.618239853E1,-4.220323792E0,5.920188904E-1,1.673414597E1
9.695902917E-1,1.615066452E1,-4.256249084E0,6.661148071E-1,1.671536209E1
9.795572917E-1,1.519505173E1,-4.893174591E0,9.131011963E-1,1.598957499E1
9.895242917E-1,1.431787582E1,-5.959706726E0,1.281185760E0,1.556152657E1
9.994912917E-1,1.282203644E1,-7.130122833E0,1.315763855E0,1.473005447E1
1.009458292E0,1.195429092E1,-7.156168671E0,1.117426300E0,1.397728382E1
1.019425292E0,1.157303375E1,-5.822442169E0,1.488504639E0,1.304038301E1
1.029392292E0,9.592502289E0,-5.657784576E0,7.385641479E-1,1.116118737E1
1.039359292E0,6.940018158E0,-5.529351654E0,-9.499246216E-1,8.924121163E0
1.049326292E0,4.236789551E0,-4.466711426E0,-1.719624023E0,6.392104774E0
1.059293292E0,3.457809448E0,-3.913012848E0,-1.034648438E0,5.323402400E0
1.069260292E0,3.395838318E0,-3.494333496E0,-1.520837402E-1,4.874957838E0
1.079227292E0,3.965403900E0,-3.287763062E0,2.829116821E-2,5.151176024E0
1.089194292E0,4.287683716E0,-3.525319061E0,4.388873291E-1,5.568188953E0
1.099161292E0,4.412524109E0,-4.144880676E0,1.374741211E0,6.208084908E0
1.109128292E0,4.853656769E0,-4.362528076E0,2.503693542E0,6.989858124E0
1.119095292E0,5.380112000E0,-4.668641510E0,3.281176758E0,7.842699764E0
1.129062292E0,5.162015533E0,-5.117857361E0,3.223995667E0,7.951919038E0
1.139029292E0,5.073998566E0,-5.713917847E0,2.924767914E0,8.182211556E0
1.148996292E0,4.900808716E0,-6.251300354E0,2.843786316E0,8.437049413E0
1.158963292E0,4.073479156E0,-6.496939545E0,2.821782074E0,8.171040935E0
1.168930292E0,3.019520874E0,-6.727160797E0,2.595153351E0,7.817097902E0
1.178897292E0,2.151326294E0,-7.069498901E0,2.317031708E0,7.744330538E0
1.188864292E0,1.977687378E0,-7.486531677E0,2.407144318E0,8.108868459E0
1.198830292E0,2.244881744E0,-7.645650787E0,2.731669464E0,8.423626776E0
1.208797292E0,2.775228882E0,-7.490273895E0,3.188369751E0,8.600686022E0
1.218764292E0,3.422333221E0,-7.404651947E0,3.419189758E0,8.844890827E0
1.228731292E0,4.064348145E0,-7.461833038E0,3.475921783E0,9.180409053E0
1.238698292E0,4.442012787E0,-7.558831329E0,3.344345398E0,9.383605640E0
1.248665292E0,4.791086884E0,-7.567064209E0,3.155737610E0,9.495980946E0
1.258632292E0,5.420078888E0,-7.491770782E0,2.296973419E0,9.527852407E0
1.268599292E0,6.856791229E0,-7.978259125E0,-1.622176666E0,1.064423138E1
1.278566292E0,7.786807251E0,-8.406069489E0,-1.716181183E0,1.158626986E1
1.288533292E0,7.361691284E0,-7.847131805E0,8.963360596E-1,1.079700859E1
1.298500292E0,7.098688202E0,-6.830895081E0,1.465751953E0,9.959966394E0
1.308467292E0,6.925348663E0,-6.024821320E0,8.728349304E-1,9.220670629E0
1.318434292E0,6.888225861E0,-5.739664307E0,-1.038839722E-1,8.966727036E0
1.328401292E0,7.264243927E0,-5.875581665E0,-1.117426300E0,9.409587731E0
1.338368292E0,8.171507263E0,-6.325845337E0,-1.999990997E0,1.052567405E1
1.348335292E0,9.060059509E0,-6.761589203E0,-2.448757782E0,1.156720284E1
1.358302292E0,9.448801117E0,-7.258106689E0,-2.677033081E0,1.221173458E1
1.368269292E0,9.748328247E0,-8.024662628E0,-2.749931488E0,1.292235416E1
1.378236292E0,1.040546173E1,-8.929830322E0,-2.862497406E0,1.400747639E1
1.388203292E0,1.033450928E1,-9.730215912E0,-3.014431458E0,1.451089180E1
1.398170292E0,9.450298004E0,-1.028226791E1,-3.239114227E0,1.433614407E1
1.408137292E0,7.991581421E0,-1.037387741E1,-3.163970490E0,1.347194921E1
1.418104292E0,6.682254181E0,-9.875264282E0,-2.733166351E0,1.223288862E1
1.428071542E0,5.912105713E0,-9.389524384E0,-2.041754150E0,1.128206196E1
1.438038542E0,5.127138062E0,-9.262887726E0,-1.316362610E0,1.066871334E1
1.448005542E0,3.922443237E0,-9.609716492E0,-9.119036865E-1,1.041939443E1
1.457971542E0,2.357297974E0,-1.022164398E1,-6.007008362E-1,1.050712620E1
1.467938542E0,1.047671356E0,-1.022733215E1,-2.570155334E-1,1.028406511E1
1.477905542E0,6.264472961E-1,-9.917027435E0,-5.132826233E-1,9.950041629E0
1.487872542E0,9.003776550E-1,-9.672136688E0,-4.751119995E-1,9.725566279E0
1.497839542E0,1.285676422E0,-9.440119171E0,-3.873944092E-1,9.535139656E0
1.507806542E0,1.821412354E0,-9.166937256E0,-6.715036011E-1,9.370229384E0
1.517773542E0,2.660118256E0,-9.107211456E0,-6.655160522E-1,9.511069407E0
1.527740542E0,3.651506653E0,-8.975784760E0,-3.336561584E-1,9.695851655E0
1.537707542E0,4.663252716E0,-8.602910156E0,5.403762817E-1,9.800407929E0
1.547674542E0,5.427413635E0,-8.172555084E0,1.741927643E0,9.964024653E0
1.557641542E0,6.035598907E0,-8.762029266E0,3.184178467E0,1.110588148E1
1.567608542E0,5.676345978E0,-9.491612091E0,3.452869720E0,1.158593600E1
1.577575542E0,5.368585968E0,-8.877139893E0,2.371817780E0,1.064193815E1
1.587542542E0,5.763015747E0,-7.629634094E0,1.591640167E0,9.693141149E0
1.597509542E0,5.483546906E0,-6.035598907E0,4.526586914E-1,8.167168465E0
1.607476542E0,4.596192169E0,-4.346511383E0,-1.669627991E0,6.542537832E0
1.617443542E0,4.444557495E0,-3.804189148E0,-3.179837494E0,6.658626952E0
1.627410542E0,3.975882111E0,-4.160148926E0,-3.897744598E0,6.950315863E0
1.637377542E0,3.072360992E0,-5.199587402E0,-3.139271851E0,6.806624639E0
1.647344542E0,1.763782196E0,-6.506220245E0,-1.780697021E0,6.972281649E0
1.657311542E0,1.186133423E0,-7.647596741E0,-9.716294861E-1,7.799789245E0
1.667278542E0,1.717229004E0,-8.786578217E0,-2.505789185E-1,8.956317435E0
1.677245542E0,3.025358734E0,-9.955497437E0,4.983137512E-1,1.041695931E1
1.687212542E0,2.821632385E0,-6.834188232E0,6.262976074E-1,7.420241695E0
1.697179542E0,3.966302032E0,-1.922901306E0,-3.113525391E-1,4.418828086E0
1.707146542E0,1.002180954E1,-5.360802155E0,3.025658112E0,1.176135507E1
1.717112542E0,1.243718674E1,-7.277715912E0,1.486858063E0,1.448652856E1
1.727079542E0,1.223166412E1,-7.870333557E0,-2.711611176E0,1.479555990E1
1.737046542E0,1.218032089E1,-8.499624939E0,-4.562512207E0,1.553770764E1
1.747013542E0,1.227642105E1,-1.009186386E1,-5.204078064E0,1.672239990E1
1.756980542E0,9.864337006E0,-1.093925171E1,-5.857169952E0,1.585177632E1
1.766947542E0,7.034621429E0,-1.188902664E1,-4.321812744E0,1.447456108E1
1.776914542E0,4.990472260E0,-1.235470825E1,-1.984273682E0,1.347148735E1
1.786881542E0,3.975283356E0,-1.239347763E1,-2.748284912E-1,1.301832156E1
1.796848542E0,2.971470795E0,-1.167706741E1,1.056203613E0,1.209541682E1
1.806815542E0,1.980381775E0,-1.079375427E1,1.853745117E0,1.112939415E1
1.816782542E0,7.635621643E-1,-1.053808594E1,2.187850342E0,1.078985503E1
1.826749542E0,-4.987628174E-1,-1.074570419E1,2.620450745E0,1.107184199E1
1.836716542E0,-1.458267517E0,-1.130658783E1,3.199147339E0,1.184060878E1
1.846683542E0,-2.240241394E0,-1.216310669E1,3.733835449E0,1.291903143E1
1.856650542E0,-2.616858215E0,-1.283371216E1,4.275259552E0,1.377787933E1
1.866617542E0,-2.108814697E0,-1.291020309E1,4.595443726E0,1.386501159E1
1.876584542E0,-1.349144440E0,-1.313308960E1,4.936584320E0,1.409496711E1
1.886551542E0,-1.268013153E0,-1.347183517E1,5.254672852E0,1.451584607E1
1.896518542E0,-1.071771240E-1,-1.377270950E1,6.615942078E0,1.527971543E1
1.906485542E0,7.800279236E-1,-1.332005081E1,6.971153412E0,1.505420795E1
1.916452542E0,7.318281555E-1,-1.180145874E1,6.258186035E0,1.337814985E1
1.926419542E0,4.490661621E-1,-1.110465775E1,6.242618408E0,1.274697488E1
1.936386542E0,-4.565505981E-2,-1.042956161E1,5.404660950E0,1.174683787E1
1.946353542E0,-9.370513916E-2,-9.714648285E0,4.554129639E0,1.072955119E1
1.956319542E0,-1.142124939E-1,-9.068591766E0,3.660487976E0,9.780162235E0
1.966286542E0,-1.149609375E-1,-8.847950592E0,3.179238739E0,9.402499915E0
1.976253542E0,-1.005908203E-1,-9.250912628E0,2.783012695E0,9.660986628E0
1.986220542E0,-4.348457336E-1,-9.825717316E0,2.709515533E0,1.020172956E1
1.996187542E0,-9.587562561E-1,-9.752070465E0,2.692301331E0,1.016221326E1
2.006154542E0,-1.609602814E0,-9.265133057E0,2.564167786E0,9.747228745E0
2.016121542E0,-2.035916290E0,-8.425229645E0,2.181413727E0,8.938009597E0
2.026088542E0,-1.727557526E0,-7.531587982E0,1.469643860E0,7.865692952E0
2.036055542E0,-7.373666382E-1,-6.659651184E0,8.271798706E-1,6.751213964E0
2.046022542E0,3.463796997E-1,-5.240302734E0,-1.231938171E-1,5.253182689E0
2.055989542E0,1.474583588E0,-3.833677826E0,-5.128335571E-1,4.139381679E0
2.065956542E0,2.163301392E0,-3.428171082E0,-4.017645264E-1,4.073529748E0
2.075923542E0,2.000889130E0,-3.572021942E0,-2.007325745E-1,4.099169627E0
2.085890542E0,1.382075958E0,-4.068838806E0,1.240919495E-1,4.298951267E0
2.095857542E0,8.583151245E-1,-4.588857422E0,3.697311401E-1,4.683056524E0
2.105824542E0,5.071453857E-1,-4.817432098E0,6.322851562E-1,4.885144111E0
2.115791542E0,3.971241760E-1,-4.932991791E0,7.530839539E-1,5.005921600E0
2.125758542E0,4.553530884E-1,-5.107678528E0,7.529342651E-1,5.182917748E0
2.135725542E0,3.480262756E-1,-5.299579468E0,6.123765564E-1,5.346182738E0
2.145692542E0,-8.981323242E-3,-5.946384430E0,4.522096252E-1,5.963561184E0
2.155659542E0,-1.950444031E-1,-7.080725555E0,1.160087585E-1,7.084361280E0
2.165626542E0,-1.380130005E-1,-8.551566925E0,-5.490582275E-1,8.570286425E0
2.175592542E0,-4.655319214E-2,-1.020413040E1,-9.939331055E-1,1.025252883E1
2.185559542E0,-1.848655701E-1,-1.129551086E1,-1.255738678E0,1.136660110E1
2.195526542E0,-7.412585449E-1,-1.176253967E1,-8.345146179E-1,1.181538059E1
2.205493542E0,-1.348395996E0,-1.224378891E1,3.080593872E-1,1.232166544E1
2.215460542E0,-1.937720490E0,-1.276216095E1,1.570683746E0,1.300363642E1
2.225427542E0,-2.406246185E0,-1.381192795E1,2.140698395E0,1.418245268E1
2.235394542E0,-2.624791718E0,-1.563468750E1,2.791395264E0,1.609735607E1
2.245361542E0,-2.190694427E0,-1.732512222E1,3.550766144E0,1.782040803E1
2.255328542E0,-1.398691406E0,-1.883862488E1,4.154909821E0,1.934201129E1
2.265295542E0,-3.315605164E-1,-2.059013260E1,5.270390167E0,2.125654030E1
2.275262542E0,-1.005908203E-1,-2.247905457E1,5.996230774E0,2.326527017E1
2.285229542E0,-1.771266632E0,-2.555889999E1,5.810467072E0,2.627082568E1
2.295196542E0,-3.301983490E0,-2.898796921E1,5.681285706E0,2.972343286E1
2.305163542E0,-3.460054779E0,-3.094934052E1,4.410278778E0,3.145288884E1
2.315130542E0,-3.732787628E0,-3.255864395E1,3.418890381E0,3.294977710E1
2.325097542E0,-3.791914673E0,-3.434323288E1,2.014660492E0,3.461062147E1
2.335064542E0,-1.871408386E0,-3.513613403E1,1.580114136E0,3.522139754E1
2.345031542E0,7.598199463E-1,-3.345722534E1,1.842817841E0,3.351655161E1
2.354998542E0,2.350112915E0,-2.905727509E1,1.104403381E0,2.917306931E1
2.364964542E0,3.099903717E0,-2.430555634E1,4.791535950E-1,2.450712264E1
2.374931542E0,3.247347107E0,-2.106359802E1,3.833528137E-1,2.131589511E1
2.384898542E0,2.954555969E0,-1.864971771E1,4.763095093E-1,1.888830968E1
2.394865542E0,2.414329376E0,-1.654883652E1,6.234535217E-1,1.673564073E1
2.404832542E0,1.834584961E0,-1.412537613E1,1.339863739E0,1.430689301E1
2.414799542E0,1.304836578E0,-1.151540359E1,2.463277588E0,1.184798949E1
2.424766917E0,9.758207703E-1,-8.677904205E0,2.958747253E0,9.220218700E0
2.434733917E0,4.727169800E-1,-6.112987976E0,2.410287781E0,6.587986834E0
2.444700917E0,2.215393066E-2,-3.731440430E0,1.503024445E0,4.022837426E0
2.454667917E0,-3.143463135E-2,-1.197809143E0,9.232800293E-1,1.512673425E0
2.464634917E0,-1.354682922E-1,1.401086426E0,3.017724609E-1,1.439604615E0
2.474601917E0,-5.614823914E-1,2.786156158E0,-1.501377869E-1,2.846132458E0
2.484568917E0,-8.746311951E-1,3.780238953E0,-1.580712891E-1,3.883319817E0
2.494535917E0,-1.206491089E0,4.322710876E0,1.661544800E-1,4.490997370E0
2.504502917E0,-1.465003510E0,4.745581512E0,8.502319336E-1,5.038816678E0
2.514469917E0,-1.605710907E0,4.964127045E0,1.640738068E0,5.469267432E0
2.524436917E0,-1.456471252E0,5.008285217E0,2.104473724E0,5.624325647E0
2.534403917E0,-1.343605957E0,5.271887054E0,1.939367065E0,5.775743649E0
2.544370917E0,-1.550326080E0,5.812712402E0,1.128054199E0,6.120755076E0
2.554337917E0,-2.792592773E0,6.611900482E0,4.574487305E-1,7.192013746E0
2.564303917E0,-4.126768341E0,7.267237701E0,-7.155120850E-2,8.357516397E0
2.574270917E0,-4.618046722E0,7.883506165E0,-5.825885010E-1,9.155076971E0
2.584237917E0,-5.402714996E0,8.196505280E0,-3.686833191E-1,9.823846269E0
2.594204917E0,-6.883735199E0,7.699389038E0,-3.183879089E-1,1.033284921E1
2.604171917E0,-6.961872711E0,5.092260590E0,-1.959425354E-1,8.627698594E0
2.614138917E0,-4.155957642E0,6.724017334E-1,1.908531189E-1,4.214324729E0
2.624105917E0,-2.773133240E0,-1.767225037E0,1.848655701E-1,3.293558497E0
2.634072917E0,-2.339634705E0,-3.236569519E0,3.899391174E-1,4.012645676E0
2.644039917E0,-1.763632507E0,-4.002526703E0,5.373825073E-1,4.406744784E0
2.654006917E0,-1.028062134E0,-4.248465271E0,5.307962036E-1,4.403193559E0
2.663973917E0,-3.573069763E-1,-4.296964417E0,2.677931213E-1,4.320102386E0
2.673940917E0,3.095562744E-1,-4.028722229E0,-8.996292114E-2,4.041598844E0
2.683907917E0,8.087681580E-1,-3.576362915E0,-1.791773987E-1,3.671046468E0
2.693874917E0,1.091679840E0,-3.111429749E0,-1.499880981E-1,3.300796326E0
2.703841917E0,1.310375061E0,-2.448159027E0,-2.335144043E-2,2.776888675E0
2.713808917E0,1.276246033E0,-1.908531189E0,2.004331970E-1,2.304662383E0
2.723775917E0,9.262738037E-1,-1.550775146E0,4.751119995E-1,1.867784283E0
2.733742917E0,5.508544922E-2,-1.034199371E0,8.726852417E-1,1.354319858E0
2.743708917E0,-5.086422729E-1,-2.525248718E-1,9.569599915E-1,1.112770506E0
2.753675917E0,-7.123686218E-1,1.306782532E-1,9.752220154E-1,1.214744351E0
2.763642917E0,-6.372248840E-1,2.071691895E-1,1.100212097E0,1.288193031E0
2.773609917E0,-4.578977966E-1,1.922003174E-1,1.477577362E0,1.558796399E0
2.783576917E0,-4.650828552E-1,4.496649170E-1,1.746717682E0,1.862665633E0
2.793543917E0,-6.411167908E-1,9.464817810E-1,1.704505463E0,2.052363850E0
2.803510917E0,-8.559201050E-1,1.368154907E0,1.490300903E0,2.196689295E0
2.813477917E0,-1.181642761E0,1.017434235E0,1.447489929E0,2.127599382E0
2.823444917E0,-1.590891724E0,-4.137396240E-1,1.410816193E0,2.166222353E0
2.833411917E0,-2.272723846E0,-2.131717072E0,1.415606232E0,3.422489205E0
2.843378917E0,-2.923869781E0,-3.985761566E0,1.260229340E0,5.101322157E0
2.853345917E0,-3.902983704E0,-6.447392578E0,1.065933380E0,7.611725614E0
2.863312917E0,-4.262386322E0,-1.940624451E1,3.164419556E0,2.011923990E1
2.873279917E0,1.582209778E-1,-6.005616257E1,6.967560883E0,6.045919782E1
2.883246917E0,-3.606300659E0,-8.106093292E1,1.091500214E1,8.187195810E1
2.893213917E0,-1.111558502E1,-7.701200272E1,1.045111679E1,7.850879336E1
2.903179917E0,4.096531219E0,-7.394577896E1,7.997568970E0,7.448973690E1
2.913146917E0,1.113459549E1,-6.139737350E1,2.381547546E0,6.244428283E1
2.923113917E0,9.318122864E0,-4.117876831E1,-3.308270416E0,4.234929783E1
2.933080917E0,1.097487762E1,-2.966546036E1,-5.716312866E0,3.214286406E1
2.943047917E0,1.150238068E1,-2.533900726E1,-5.552403717E0,2.837603280E1
2.953014917E0,1.428404617E1,-2.237936188E1,-6.079457703E0,2.723654932E1
2.962981917E0,1.504177048E1,-2.272768753E1,-8.113428040E0,2.843642654E1
2.972948917E0,1.287502625E1,-2.466166580E1,-6.130800934E0,2.848773036E1
2.982915917E0,9.488019562E0,-2.433070404E1,-3.341351624E0,2.632812764E1
2.992882917E0,6.771768036E0,-2.178644485E1,-7.523355103E-1,2.282700222E1
3.002849917E0,5.091661835E0,-1.835947128E1,4.884342957E-1,1.905869287E1
3.012816917E0,3.112477570E0,-1.489088425E1,5.141807556E-1,1.522137747E1
3.022783917E0,1.399589539E0,-1.187854843E1,8.635542297E-1,1.199185097E1
3.032750917E0,4.191284180E-3,-9.058562622E0,1.365011444E0,9.160831326E0
3.042717917E0,-1.043180695E0,-6.563850403E0,1.525028687E0,6.818949374E0
3.052684917E0,-1.719025269E0,-4.406835938E0,1.592089233E0,4.990991783E0
3.062650917E0,-2.015858002E0,-2.691103821E0,1.793869629E0,3.810996130E0
3.072617917E0,-1.816472626E0,-1.176703033E0,1.948049011E0,2.911889040E0
3.082584917E0,-1.836680603E0,-6.256988525E-2,1.805994415E0,2.576611429E0
3.092551917E0,-2.051932983E0,6.813830566E-1,1.444346466E0,2.600163178E0
3.102518917E0,-2.332599335E0,9.750723267E-1,1.626068573E0,3.005974834E0
3.112485917E0,-2.577939148E0,1.420845337E0,2.757565613E0,4.033452594E0
3.122452917E0,-2.656376038E0,2.096390533E0,5.216651917E0,6.218090072E0
3.132419917E0,-3.067271576E0,3.365750885E0,8.248147888E0,9.421697168E0
3.142386917E0,-3.533701630E0,5.266498260E0,9.699529724E0,1.158895716E1
3.152353917E0,-3.741768951E0,7.887847137E0,9.666747894E0,1.302555113E1
3.162320917E0,-4.275259552E0,9.653126221E0,9.536518707E0,1.422694202E1
3.172287917E0,-4.847519531E0,1.072968750E1,9.050629120E0,1.485053962E1
3.182254917E0,-4.556524658E0,1.036788986E1,7.520061951E0,1.359435136E1
3.192221917E0,-2.696941681E0,8.830586700E0,5.697901154E0,1.084983103E1
3.202188917E0,-2.079625397E0,7.404951324E0,4.953499146E0,9.148513524E0
3.212155917E0,-2.008074188E0,6.516698456E0,3.904181213E0,7.857630155E0
3.222122917E0,-2.375859375E0,5.837560730E0,1.605112152E0,6.503707256E0
3.232088917E0,-2.291135559E0,4.706213379E0,3.203338623E-1,5.244078594E0
3.242055917E0,-1.422192535E0,3.869752808E0,2.125579834E-2,4.122871597E0
3.252022917E0,-7.732919312E-1,3.010240173E0,1.700463867E-1,3.112626236E0
3.261989917E0,-3.321592712E-1,2.133064270E0,3.396437073E-1,2.185326248E0
3.271956917E0,7.933502197E-2,1.278641052E0,1.739382935E-1,1.292854020E0
3.281923917E0,5.263055420E-1,6.074368286E-1,-6.242019653E-1,1.017646853E0
3.291890917E0,8.370593262E-1,1.963916016E-1,-1.137035522E0,1.425513155E0
3.301857917E0,1.023870850E0,-4.146377563E-2,-1.242715759E0,1.610705814E0
3.311824917E0,1.021924896E0,-1.020877075E-1,-1.218615875E0,1.593667796E0
3.321791917E0,9.862989807E-1,-1.353186035E-1,-1.194665680E0,1.555095782E0
3.331758917E0,1.010698242E0,-2.019300842E-1,-1.197659454E0,1.580086980E0
3.341725917E0,1.053509216E0,-2.477348328E-1,-1.225800934E0,1.635188719E0
3.351692917E0,1.073268127E0,-3.022215271E-1,-1.228944397E0,1.659381408E0
3.361659917E0,1.058299255E0,-3.218307495E-1,-1.194965057E0,1.628346964E0
3.371626917E0,1.025218048E0,-2.553689575E-1,-1.129700775E0,1.546773801E0
3.381592917E0,8.414002991E-1,-1.694476318E-1,-9.777667236E-1,1.301036021E0
3.391559917E0,5.763015747E-1,-1.589694214E-1,-7.441026306E-1,9.545069444E-1
3.401526917E0,3.436853027E-1,-1.710942078E-1,-5.587879944E-1,6.779652188E-1
3.411493917E0,1.845661926E-1,-1.381626892E-1,-3.379971313E-1,4.091401581E-1
3.421460917E0,9.894424438E-2,-1.529818726E-1,1.188528442E-1,2.175302632E-1
3.431427917E0,2.664459229E-2,-3.827540588E-1,1.393601990E0,1.445453946E0
3.441394917E0,-3.278182983E-2,-9.514215088E-1,3.826642456E0,3.943281631E0
3.451361917E0,-2.920426941E-1,-2.007774811E0,5.395979004E0,5.764810321E0
3.461328917E0,-5.322930908E-1,-4.353097687E0,6.513704681E0,7.852461021E0
3.471295917E0,-1.716630249E0,-2.057725937E1,1.443762680E1,2.519554505E1
3.481262917E0,1.221310272E0,-7.434799255E1,2.178973801E1,7.748489064E1
3.491229917E0,-8.369545441E0,-1.042599902E2,2.274699738E1,1.070402763E2
3.501196917E0,-9.918823700E0,-9.954973526E1,1.911480057E1,1.018523856E2
3.511163917E0,8.170160065E0,-9.056661575E1,7.353608093E0,9.123123893E1
3.521129917E0,8.822653198E0,-6.542265289E1,-6.242019653E0,6.630931707E1
3.531096917E0,7.658524017E0,-3.919209961E1,-1.224588455E1,4.176883228E1
3.541063917E0,7.176526337E0,-2.421155182E1,-1.247700394E1,2.816695580E1
3.551030917E0,1.179322586E1,-1.927661407E1,-1.740400818E1,2.852310514E1
3.560997917E0,1.650722305E1,-2.356998596E1,-1.855167160E1,3.423736512E1
3.570964917E0,1.847009125E1,-2.479967880E1,-1.836426132E1,3.596407142E1
3.580931917E0,1.528217056E1,-2.376233597E1,-1.205263641E1,3.071578409E1
3.590898917E0,1.081770447E1,-2.272574158E1,-5.096302185E0,2.567984338E1
3.600865917E0,7.558831329E0,-2.028521667E1,-1.072968750E0,2.167434448E1
3.610832917E0,4.867128754E0,-1.732422409E1,3.080593872E-1,1.799757159E1
3.620799917E0,2.546205139E0,-1.474733276E1,5.370831299E-1,1.497516085E1
3.630766917E0,8.997789001E-1,-1.217358490E1,5.864804077E-1,1.222087275E1
3.640733917E0,-4.414320374E-1,-9.679471436E0,9.645941162E-1,9.737426319E0
3.650700917E0,-1.503174133E0,-7.221882019E0,1.677860870E0,7.565072998E0
3.660666917E0,-2.196681976E0,-4.994962921E0,4.011508026E0,6.772537407E0
3.670633917E0,-2.482437744E0,-3.100652161E0,7.450905762E0,8.443490845E0
3.680600917E0,-2.768642578E0,-1.191821594E0,8.404422913E0,8.928613830E0
3.690567917E0,-2.890938263E0,3.580554199E-1,8.798852692E0,9.268523961E0
3.700534917E0,-2.756517792E0,1.621128845E0,9.399703217E0,9.928789938E0
3.710501917E0,-2.330653381E0,2.969375153E0,9.318571930E0,1.005409950E1
3.720468917E0,-2.433639221E0,4.033512268E0,9.023834839E0,1.017946051E1
3.730435917E0,-2.522704010E0,5.767356720E0,9.572294312E0,1.145666869E1
3.740402917E0,-1.165326691E0,1.083761307E1,9.726024628E0,1.460847009E1
3.750369917E0,3.182531891E0,2.202370148E1,9.760303345E0,2.429887770E1
3.760336917E0,-3.650907898E-1,1.919248901E1,1.008527756E1,2.168404366E1
3.770303917E0,-5.304818573E0,1.058883041E1,9.964927826E0,1.547786213E1
3.780270917E0,-5.363047485E0,7.785909119E0,8.645421753E0,1.281116608E1
3.790237917E0,-3.231629791E0,7.234455872E0,7.092550964E0,1.063414604E1
3.800203917E0,-1.803749084E0,6.588848419E0,5.178930359E0,8.572499864E0
3.810170917E0,-1.549278259E0,6.076763306E0,3.075205078E0,6.984568825E0
3.820137917E0,-1.640438690E0,5.384452972E0,1.569635925E0,5.843554556E0
3.830104917E0,-1.505120087E0,4.112996979E0,6.836283875E-1,4.432773217E0
3.840071917E0,-1.375789032E0,2.881507874E0,-4.640350342E-3,3.193102663E0
3.850038917E0,-1.298250275E0,1.735191650E0,-9.403445435E-1,2.362327602E0
3.860005917E0,-1.101110229E0,7.828720093E-1,-1.609153748E0,2.101120678E0
3.869972917E0,-5.737568665E-1,3.532653809E-2,-1.591191101E0,1.691843381E0
3.879939917E0,-1.457968140E-1,-5.224136353E-1,-1.732646942E0,1.815554500E0
3.889906917E0,3.128494263E-1,-8.472381592E-1,-2.169139252E0,2.349649411E0
3.899873917E0,6.846762085E-1,-1.120869141E0,-2.179318085E0,2.544514974E0
3.909840917E0,8.657995605E-1,-1.391356659E0,-2.120340729E0,2.679799813E0
3.919807917E0,9.195378113E-1,-1.635049896E0,-2.127974854E0,2.836761345E0
3.929774917E0,8.943901062E-1,-1.848506012E0,-2.001338196E0,2.867448816E0
3.939740917E0,9.172924805E-1,-1.960173798E0,-1.722318420E0,2.765879165E0
3.949707917E0,9.488768005E-1,-1.998194733E0,-1.489851837E0,2.666984790E0
3.959674917E0,9.457333374E-1,-2.009870453E0,-1.331630859E0,2.589832336E0
3.969641917E0,8.762777710E-1,-2.015109558E0,-1.191222839E0,2.499508175E0
3.979608917E0,7.544311523E-1,-1.985920258E0,-1.134790192E0,2.408483841E0
3.989575917E0,5.890251160E-1,-1.901795197E0,-9.900411987E-1,2.223501098E0
3.999542917E0,3.562591553E-1,-1.661095734E0,-5.771997070E-1,1.794246116E0
4.009509917E0,2.332150269E-1,-1.360221405E0,-1.139131165E-1,1.384762694E0
4.019476917E0,-4.849914551E-2,-1.232237549E0,1.893562317E-1,1.247644712E0
4.029443917E0,-4.343966675E-1,-1.304986267E0,6.475534058E-1,1.520202301E0
4.039410917E0,-8.970845032E-1,-1.610201569E0,1.305135956E0,2.258514902E0
4.049377917E0,-1.438358917E0,-2.556533661E0,2.028731232E0,3.566579754E0
4.059344917E0,-1.551673279E0,-6.224955139E0,3.669768677E0,7.390869948E0
4.069310917E0,-2.233355713E-1,-2.052516769E1,9.854607239E0,2.276940209E1
4.079277917E0,3.678750000E0,-4.754981964E1,1.577569427E1,5.023336620E1
4.089244917E0,-3.258573761E0,-7.495782440E1,2.299667816E1,7.847382333E1
4.099211917E0,-6.421197052E0,-8.826125977E1,2.725771729E1,9.259732663E1
4.109178917E0,8.366252289E0,-8.213479980E1,1.775383072E1,8.444713152E1
4.119145917E0,1.210128525E1,-6.451074921E1,3.048859863E0,6.570672275E1
4.129112917E0,9.436077576E0,-4.522814758E1,-5.775439911E0,4.656157858E1
4.139079917E0,8.835227051E0,-3.312312012E1,-1.032986893E1,3.580375002E1
4.149046917E0,9.966724091E0,-2.640134811E1,-1.173903854E1,3.056422414E1
4.159013917E0,1.214200058E1,-2.490999939E1,-1.242431351E1,3.036938942E1
4.168980917E0,1.757390488E1,-2.905143723E1,-1.113249985E1,3.573178823E1
4.178947917E0,1.849134705E1,-2.887944489E1,-1.206431213E1,3.635243980E1
4.188913917E0,1.463880844E1,-2.511267792E1,-1.157363251E1,3.128722222E1
4.198880917E0,1.122874969E1,-2.106689117E1,-5.792803802E0,2.456532718E1
4.208847917E0,8.639583893E0,-1.744053223E1,-2.210453339E0,1.958827910E1
4.218814917E0,6.437064056E0,-1.422731415E1,-5.900729370E-1,1.562691421E1
4.228781917E0,4.228856049E0,-1.150297943E1,3.076103210E-1,1.225954254E1
4.238748917E0,2.309846649E0,-9.244326324E0,7.306306458E-1,9.556504689E0
4.248715917E0,1.052760773E0,-7.204218750E0,1.080902252E0,7.360531416E0
4.258682917E0,-1.178050232E-1,-5.289849701E0,1.311422882E0,5.451258374E0
4.268649917E0,-1.304237823E0,-3.599115601E0,1.317859497E0,4.048632246E0
4.278616917E0,-2.269131317E0,-2.211501160E0,1.181792450E0,3.381763994E0
4.288583917E0,-2.381547546E0,-9.645941162E-1,1.755249939E0,3.111770055E0
4.298550917E0,-2.516716461E0,-2.183958435E-1,4.117038574E0,4.830275884E0
4.308517917E0,-2.659070435E0,7.018904114E-1,7.458689575E0,7.949550673E0
4.318483917E0,-2.679428101E0,1.797162781E0,1.117291580E1,1.162940998E1
4.328450917E0,-2.744542694E0,2.977158966E0,1.122306152E1,1.193118184E1
4.338417917E0,-2.845881958E0,4.484374695E0,1.042058029E1,1.169603156E1
4.348384917E0,-3.447181549E0,6.542744293E0,1.020502853E1,1.260290327E1
4.358351917E0,-4.019591217E0,8.764424286E0,1.092967163E1,1.457497748E1
4.368318917E0,-5.078638916E0,9.614506531E0,1.124461670E1,1.564201757E1
4.378285917E0,-5.341941376E0,9.317973175E0,1.027508286E1,1.486399305E1
4.388252917E0,-4.454436951E0,8.666976929E0,7.942333832E0,1.257136287E1
4.398219917E0,-2.869083710E0,8.854985962E0,5.863007812E0,1.100078535E1
4.408186917E0,-1.687440948E0,9.613608398E0,4.474195862E0,1.073719479E1
4.418153917E0,-1.148860931E0,8.726702728E0,3.406166840E0,9.438071545E0
4.428121042E0,-5.533992004E-1,6.924899597E0,2.466870117E0,7.371969430E0
4.438087042E0,-5.801934814E-1,5.310207367E0,1.769620056E0,5.627297922E0
4.448054042E0,-9.150471497E-1,4.134552155E0,1.269809418E0,4.420887780E0
4.458021042E0,-7.472460938E-1,3.142115936E0,5.736071777E-1,3.280288779E0
4.467988042E0,-2.423460388E-1,2.373464355E0,8.457412720E-2,2.387303381E0
4.477955042E0,2.719844055E-1,1.579216003E0,-2.830613708E-1,1.627274544E0
4.487922042E0,7.387138367E-1,7.979905701E-1,-8.440946960E-1,1.376583793E0
4.497889042E0,9.207353210E-1,2.320175171E-1,-9.300160217E-1,1.329103254E0
4.507856042E0,8.626560974E-1,-2.092648315E-1,-9.939331055E-1,1.332617849E0
4.517823042E0,7.608677673E-1,-4.917274475E-1,-1.120270386E0,1.440736402E0
4.527790042E0,8.740324402E-1,-5.906716919E-1,-1.321302338E0,1.690758889E0
4.537757042E0,1.082997894E0,-6.204597473E-1,-1.676214294E0,2.089868201E0
4.547724042E0,1.187330933E0,-7.023394775E-1,-2.093696136E0,2.507309115E0
4.557690042E0,1.311422882E0,-7.509883118E-1,-2.289938049E0,2.743652618E0
4.567657042E0,1.238374786E0,-7.212002563E-1,-2.182162170E0,2.610657706E0
4.577624042E0,9.639953613E-1,-6.523434448E-1,-1.834285583E0,2.172427819E0
4.587591042E0,6.620732117E-1,-6.098318481E-1,-1.430575104E0,1.690201452E0
4.597558042E0,3.730242920E-1,-5.221142578E-1,-1.068328400E0,1.246224695E0
4.607525042E0,1.228944397E-1,-3.679348755E-1,-7.574249268E-1,8.509827469E-1
4.617492042E0,2.993774414E-2,-1.636097717E-1,-5.282514954E-1,5.538177212E-1
4.627459042E0,1.347198486E-2,-4.251159668E-2,-3.826043701E-1,3.851945408E-1
4.637426042E0,1.496887207E-3,3.412902832E-2,-2.255809021E-1,2.281529632E-1
4.647393042E0,-6.878196716E-1,-1.260379028E-1,5.188211060E-1,8.707219956E-1
4.657360042E0,-1.978286133E0,-5.484594727E-1,1.354682922E0,2.459591356E0
4.667327042E0,-2.867736511E0,-1.071022797E0,2.937790833E0,4.242831308E0
4.677293042E0,-3.228186951E0,-2.329006805E0,4.126019897E0,5.733193166E0
4.687260042E0,-2.221829681E0,-4.993166656E0,4.758005676E0,7.246161633E0
4.697227042E0,4.257147217E-1,-2.450733673E1,1.362751144E1,2.804460474E1
4.707194042E0,1.109148514E1,-7.937439011E1,2.003209305E1,8.261113484E1
4.717161042E0,-5.809269562E0,-9.923464050E1,2.430001785E1,1.023315804E2
4.727128042E0,-1.472787323E0,-9.685923019E1,2.504247391E1,1.000550102E2
4.737095042E0,1.912632660E1,-8.455436829E1,1.149324966E1,8.744914152E1
4.747062042E0,1.528426620E1,-5.825585632E1,-4.285438385E0,6.037978612E1
4.757029042E0,1.129401398E1,-3.655428497E1,-1.206850342E1,4.011756818E1
4.766996042E0,9.235345001E0,-2.540741501E1,-1.311737228E1,3.004819113E1
4.776963042E0,1.158321259E1,-1.985052063E1,-1.439930649E1,2.712109899E1
4.786929042E0,2.059626984E1,-2.094998428E1,-1.518143005E1,3.306938147E1
4.796896042E0,2.305311081E1,-2.280582504E1,-1.272443939E1,3.483479484E1
4.806863042E0,1.908546158E1,-2.207444595E1,-1.112441666E1,3.122961181E1
4.816830042E0,1.400876862E1,-2.059626984E1,-5.554050293E0,2.552056825E1
4.826797042E0,1.029588959E1,-1.902947800E1,-1.816921692E0,2.171238309E1
4.836764042E0,8.318351898E0,-1.736523880E1,-8.128097534E-1,1.927192664E1
4.846731042E0,5.814808044E0,-1.527034515E1,-7.250921631E-1,1.635607509E1
4.856698042E0,3.303031311E0,-1.289777893E1,-5.207670593E-1,1.332418536E1
4.866665042E0,1.392853546E0,-1.067295547E1,2.679428101E-2,1.076349095E1
4.876632042E0,1.113684082E-1,-8.446335754E0,1.017883301E0,8.508177068E0
4.886599042E0,-8.729846191E-1,-6.493796082E0,2.480342102E0,7.005967930E0
4.896566042E0,-1.757644958E0,-4.914879456E0,4.433181152E0,6.848244373E0
4.906532042E0,-2.633773041E0,-3.454965363E0,6.231840820E0,7.596669408E0
4.916499042E0,-2.897823944E0,-1.767973480E0,7.674391022E0,8.391626266E0
4.926466042E0,-2.481539612E0,-2.194436646E-1,8.791667633E0,9.137812328E0
4.936433042E0,-1.974992981E0,1.094523926E0,9.528884583E0,9.792763721E0
4.946400042E0,-1.720372467E0,2.161355438E0,9.823921051E0,1.020492840E1
4.956367042E0,-1.964963837E0,3.456462250E0,1.019065842E1,1.093881772E1
4.966334042E0,-2.845133514E0,5.114564209E0,1.075588303E1,1.224510398E1
4.976301042E0,-3.888912964E0,6.998396759E0,1.067340454E1,1.334251722E1
4.986268042E0,-4.853656769E0,8.049660645E0,1.019799316E1,1.386917752E1
4.996235042E0,-5.358257446E0,8.603808289E0,9.810748444E0,1.410628317E1
5.006202042E0,-5.354215851E0,8.609346771E0,8.904233551E0,1.349347451E1
5.016168042E0,-4.540507965E0,8.621321869E0,7.811056824E0,1.248823495E1
5.026135042E0,-3.198249207E0,8.796008606E0,5.956563263E0,1.109410705E1
5.036102042E0,-1.897454224E0,9.417516174E0,4.262685699E0,1.051001583E1
5.046069042E0,-1.162931671E0,9.609267426E0,3.173101501E0,1.018621636E1
5.056036042E0,-7.292834473E-1,8.651558990E0,2.505639496E0,9.036567744E0
5.066003042E0,-5.809419250E-1,6.984026642E0,1.994153137E0,7.286341221E0
5.075970042E0,-4.068539429E-1,5.380411377E0,1.210083618E0,5.529797381E0
5.085937042E0,-2.158511353E-1,4.243824921E0,5.930667114E-1,4.290497616E0
5.095904042E0,8.681945801E-2,3.360362091E0,2.880010986E-1,3.373798399E0
5.105871042E0,4.337979126E-1,2.203567657E0,-1.428030396E-1,2.250396356E0
5.115838042E0,8.012837219E-1,1.297202454E0,-9.482780457E-1,1.795555920E0
5.125805042E0,9.363029480E-1,5.007087708E-1,-1.369651794E0,1.733008517E0
5.135771042E0,7.711962891E-1,-3.396437073E-1,-1.682351532E0,1.881597258E0
5.145738042E0,8.952882385E-1,-8.508306885E-1,-2.121687927E0,2.454997668E0
5.155705042E0,1.268312531E0,-1.001567230E0,-2.514022064E0,2.988655305E0
5.165672042E0,1.583257599E0,-9.604028320E-1,-2.741249542E0,3.308100252E0
5.175639042E0,1.622925110E0,-9.503736877E-1,-2.676134949E0,3.270901148E0
5.185606042E0,1.502725067E0,-9.172924805E-1,-2.429747314E0,3.000546639E0
5.195573042E0,1.335672455E0,-7.574249268E-1,-2.069895630E0,2.577242974E0
5.205540042E0,1.146465912E0,-6.033952332E-1,-1.663191376E0,2.108239893E0
5.215507042E0,9.487271118E-1,-4.629872131E-1,-1.353485413E0,1.716497321E0
5.225474042E0,7.731422424E-1,-3.948788452E-1,-1.131497040E0,1.426171021E0
5.235441042E0,5.530998230E-1,-3.243754578E-1,-9.020242310E-1,1.106700757E0
5.245407042E0,2.489323425E-1,-1.649569702E-1,-6.932084656E-1,7.547953961E-1
5.255374042E0,1.008901978E-1,-5.104385376E-2,-4.089495850E-1,4.242924346E-1
5.265341042E0,6.735992432E-2,-5.942642212E-2,-1.625619507E-1,1.857289607E-1
5.275308042E0,-1.809736633E-1,-1.960922241E-1,4.733157349E-1,5.433520149E-1
5.285275042E0,-8.256829834E-1,-6.349795532E-1,1.857187958E0,2.129342277E0
5.295242042E0,-1.691183167E0,-1.794318695E0,4.379891968E0,5.026244496E0
5.305209042E0,-2.013912048E0,-4.812642059E0,6.896159363E0,8.647218009E0
5.315176042E0,-1.246457977E0,-2.451766525E1,1.869312744E1,3.085615952E1
5.325143042E0,7.034172363E0,-8.684954544E1,2.870879974E1,9.174158439E1
5.335110042E0,-9.316476288E0,-1.151690048E2,2.953493179E1,1.192602557E2
5.345076042E0,-3.235671387E0,-1.084355571E2,2.981634659E1,1.125066849E2
5.355043042E0,1.549862045E1,-8.770262146E1,1.110795090E1,8.975156611E1
5.365010042E0,1.173170380E1,-5.611171509E1,-4.061803436E0,5.746873664E1
5.374977042E0,8.539142761E0,-3.642375641E1,-1.095691498E1,3.898282924E1
5.384944042E0,6.016588440E0,-2.455478806E1,-1.354069199E1,2.867903925E1
5.394911042E0,9.506281586E0,-1.960458206E1,-2.100147720E1,3.026170967E1
5.404878042E0,1.691527451E1,-2.303335190E1,-2.247351608E1,3.635547739E1
5.414845042E0,1.546613800E1,-2.515758453E1,-1.860526016E1,3.490359852E1
5.424812167E0,1.069735474E1,-2.446287918E1,-8.868457947E0,2.813388353E1
5.434779167E0,8.887169037E0,-2.137435181E1,-7.485932922E-1,2.316042056E1
5.444746167E0,6.882238312E0,-1.709145813E1,9.575587463E-1,1.844993398E1
5.454712167E0,4.539460144E0,-1.311138474E1,4.345463562E-1,1.388178442E1
5.464679167E0,2.081571350E0,-1.023990601E1,4.323010254E-1,1.045827416E1
5.474646167E0,1.725910950E-1,-7.976013794E0,1.113684082E0,8.055239038E0
5.484613167E0,-1.285526733E0,-6.069278870E0,1.701661377E0,6.433068974E0
5.494580167E0,-2.688110046E0,-4.432283020E0,2.759062500E0,5.872264833E0
5.504547167E0,-3.544479218E0,-2.984643402E0,8.106093292E0,9.337032592E0
5.514514167E0,-3.049907684E0,-7.497908020E-1,1.286155426E1,1.323947511E1
5.524481167E0,-2.596350861E0,1.187630310E0,1.173529633E1,1.207761083E1
5.534448167E0,-2.548001404E0,2.206411743E0,1.145747406E1,1.194295926E1
5.544415167E0,-2.819836121E0,3.483555908E0,1.196881073E1,1.278041736E1
5.554381167E0,-3.366349640E0,4.962929535E0,1.069421127E1,1.226087820E1
5.564348167E0,-4.376000061E0,6.852749634E0,9.559720459E0,1.254981312E1
5.574315167E0,-5.295687561E0,8.435707855E0,9.567803650E0,1.381116724E1
5.584282167E0,-5.511538696E0,9.384135590E0,9.683513031E0,1.456741172E1
5.594249167E0,-5.243595886E0,1.009066635E1,9.403894501E0,1.475635717E1
5.604216167E0,-1.745969238E0,1.712214432E1,9.175170135E0,1.950384530E1
5.614183167E0,-8.822653198E-1,1.892664185E1,7.724536743E0,2.046129594E1
5.624150167E0,-1.413360901E0,1.405098083E1,6.573729858E0,1.557695656E1
5.634117167E0,-3.257226562E-1,1.051174072E1,5.456004181E0,1.184781709E1
5.644084167E0,-2.430944824E-1,7.964188385E0,3.407514038E0,8.665941581E0
5.654051167E0,-1.857637024E-1,6.076463928E0,1.404229889E0,6.239373655E0
5.664017167E0,-4.867877197E-1,4.010460205E0,3.384461975E-1,4.054047258E0
5.673984167E0,-8.864566040E-1,2.395468597E0,-2.077679443E-1,2.562663191E0
5.683951167E0,-8.267308044E-1,1.075812836E0,-3.620970154E-1,1.404268966E0
5.693918167E0,-5.272036743E-1,1.251397705E-1,-5.635780334E-1,7.818080814E-1
5.703885167E0,-2.820135498E-1,-3.773652649E-1,-6.785389709E-1,8.260455923E-1
5.713852167E0,-7.544311523E-2,-6.394702148E-1,-7.485932922E-1,9.874237877E-1
5.723819167E0,8.068222046E-2,-8.283773804E-1,-7.447013855E-1,1.116825348E0
5.733786167E0,1.303788757E-1,-9.116043091E-1,-7.394622803E-1,1.181027320E0
5.743753167E0,1.917512512E-1,-8.464897156E-1,-8.765771484E-1,1.233572405E0
5.753720167E0,2.109114075E-1,-8.893006897E-1,-9.123527527E-1,1.291405004E0
5.763686167E0,1.582209778E-1,-8.515791321E-1,-8.979826355E-1,1.247635247E0
5.773653167E0,1.552272034E-1,-8.628057861E-1,-1.043480072E0,1.362857282E0
5.783620167E0,1.219963074E-1,-1.163231049E0,-1.422791290E0,1.841826438E0
5.793587167E0,1.022373962E-1,-1.466949463E0,-1.585203552E0,2.162235767E0
5.803554167E0,1.582209778E-1,-1.639390869E0,-1.551972656E0,2.263019095E0
5.813521167E0,2.776725769E-1,-1.877994690E0,-1.368154907E0,2.340045719E0
5.823488167E0,5.034031677E-1,-2.009720764E0,-1.130149841E0,2.360006560E0
5.833455167E0,5.499563599E-1,-1.914069672E0,-5.842350769E-1,2.075438588E0
5.843422167E0,2.004331970E-1,-1.731599121E0,2.498304749E-1,1.760972529E0
5.853389167E0,-1.615141296E-1,-1.517095184E0,9.702822876E-1,1.808068674E0
5.863355167E0,-5.273533630E-1,-1.418150940E0,1.613045654E0,2.211598956E0
5.873322167E0,-1.096020813E0,-1.531914368E0,2.494263153E0,3.125599451E0
5.883289167E0,-1.680854645E0,-2.135758667E0,3.611539764E0,4.519950983E0
5.893256167E0,-1.494641876E0,-4.717440033E0,4.433031464E0,6.643791294E0
5.903223167E0,1.779948578E0,-1.988315277E1,1.052850586E1,2.256894806E1
5.913190167E0,5.644911346E0,-5.687018784E1,1.862471970E1,6.010793186E1
5.923157167E0,-4.072131958E0,-9.091089981E1,2.519770111E1,9.442615159E1
5.933124167E0,-5.088218994E0,-9.821271561E1,2.840597946E1,1.023646773E2
5.943091167E0,1.150642227E1,-8.496706009E1,1.680555267E1,8.737405596E1
5.953058167E0,1.486423965E1,-6.162879227E1,5.522016907E-1,6.339841152E1
5.963024167E0,1.313877777E1,-4.092250122E1,-6.752158813E0,4.350712857E1
5.972991167E0,1.154040161E1,-3.214131180E1,-8.862769775E0,3.528163094E1
5.982958167E0,1.162722107E1,-2.547357742E1,-6.752009125E0,2.880425392E1
5.992925167E0,1.723530899E1,-2.304921890E1,-1.216505264E1,3.124597372E1
6.002892167E0,2.173061096E1,-2.690430222E1,-1.113190109E1,3.633153110E1
6.012859167E0,2.084924377E1,-2.731325180E1,-1.162557449E1,3.627476633E1
6.022826167E0,1.451022583E1,-2.352732468E1,-1.339145233E1,3.071502329E1
6.032793167E0,9.520052948E0,-1.936343353E1,-8.553363190E0,2.321064385E1
6.042760167E0,7.025191040E0,-1.696901276E1,-3.837420044E0,1.876236914E1
6.052726167E0,4.426744537E0,-1.446606766E1,-1.252595215E0,1.517999260E1
6.062693167E0,1.748663635E0,-1.194411209E1,6.066883850E-1,1.208667485E1
6.072660167E0,-1.866618347E-1,-9.632020111E0,1.641785889E0,9.772723007E0
6.082627167E0,-1.335223389E0,-7.405999146E0,2.296973419E0,7.868146651E0
6.092594167E0,-2.225122833E0,-5.546565857E0,2.481988678E0,6.471153856E0
6.102561167E0,-2.797682190E0,-3.920646973E0,2.847229156E0,5.595106093E0
6.112528167E0,-2.774181061E0,-2.422113190E0,5.781726837E0,6.855003872E0
6.122495167E0,-2.381697235E0,-7.973918152E-1,9.992919617E0,1.030372544E1
6.132462167E0,-2.426005096E0,9.931846619E-1,1.142648849E1,1.172333382E1
6.142429167E0,-2.253114624E0,2.071242828E0,1.147843048E1,1.187943343E1
6.152395167E0,-2.359094238E0,3.313659210E0,1.142379410E1,1.212636527E1
6.162362167E0,-2.790946198E0,5.460195465E0,1.244512024E1,1.387386511E1
6.172329167E0,-3.406915283E0,8.140671387E0,1.319221664E1,1.587174163E1
6.182296167E0,-3.813020782E0,1.006162674E1,1.233300339E1,1.636699217E1
6.192263167E0,-4.294569397E0,1.040112076E1,1.033271301E1,1.527715934E1
6.202230167E0,-4.448449402E0,9.853709106E0,9.205257568E0,1.419933281E1
6.212197167E0,-3.408412170E0,9.684111786E0,8.075407104E0,1.306183350E1
6.222164167E0,-2.005379791E0,1.018107834E1,6.111491089E0,1.204268357E1
6.232131167E0,-1.354084167E0,1.107397156E1,4.972060547E0,1.221424480E1
6.242098167E0,-7.613168335E-1,1.085437820E1,4.510420532E0,1.177883793E1
6.252064167E0,-3.044668579E-1,9.832004242E0,3.355422363E0,1.039326064E1
6.262031167E0,-3.409909058E-1,7.970475311E0,1.871558075E0,8.194356663E0
6.271998167E0,-4.207749939E-1,6.294410706E0,1.151555328E0,6.412701256E0
6.281965167E0,-1.065783691E-1,4.804558868E0,7.680528259E-1,4.866728882E0
6.291932167E0,5.486091614E-1,3.113525391E0,7.604187012E-2,3.162403316E0
6.301899167E0,1.255888367E0,1.520987091E0,-1.082548828E0,2.250015397E0
6.311866167E0,1.550625458E0,4.029620361E-1,-1.954036560E0,2.526870909E0
6.321833167E0,1.300794983E0,-4.320016479E-1,-2.560126190E0,2.903952328E0
6.331800167E0,9.026229858E-1,-8.385562134E-1,-3.456611938E0,3.669614540E0
6.341767167E0,1.117575989E0,-1.047970734E0,-4.306095428E0,4.570522573E0
6.351733167E0,1.549877014E0,-1.191522217E0,-4.008514252E0,4.459824039E0
6.361700167E0,1.605112152E0,-1.102607117E0,-3.328029327E0,3.855892462E0
6.371667167E0,1.392853546E0,-9.660910034E-1,-2.645748138E0,3.142189689E0
6.381634167E0,1.143771515E0,-7.878117371E-1,-1.900298309E0,2.353719243E0
6.391601167E0,9.358538818E-1,-5.945635986E-1,-1.322200470E0,1.725555691E0
6.401568167E0,7.860154724E-1,-4.430786133E-1,-9.102571106E-1,1.281681313E0
6.411535167E0,6.480024719E-1,-3.815565491E-1,-7.201524353E-1,1.041207056E0
6.421502167E0,4.775070190E-1,-3.309617615E-1,-5.921685791E-1,8.295855995E-1
6.431468708E0,3.112028503E-1,-4.065545654E-1,-3.725752258E-1,6.332030698E-1
6.441434708E0,2.035766602E-1,-5.245092773E-1,-3.065625000E-1,6.407292759E-1
6.451401708E0,2.508782959E-1,-6.212081909E-1,-1.682501221E-1,6.907587418E-1
6.461368708E0,2.477348328E-1,-7.060816956E-1,-2.814147949E-2,7.488096227E-1
6.471335708E0,1.193019104E-1,-6.737489319E-1,1.860630798E-1,7.090768920E-1
6.481302708E0,-1.558259583E-1,-5.869294739E-1,6.146218872E-1,8.640185188E-1
6.491269708E0,-5.918692017E-1,-6.072871399E-1,1.648372192E0,1.853709175E0
6.501236708E0,-1.166524200E0,-1.105451202E0,3.560196533E0,3.906123452E0
6.511203708E0,-1.552721100E0,-2.432441711E0,5.309758301E0,6.043281286E0
6.521170708E0,6.435118103E-1,-8.946745148E0,9.705517273E0,1.321572630E1
6.531137708E0,1.192659851E1,-4.985203217E1,2.220242981E1,5.586069058E1
6.541103708E0,4.831353149E0,-1.099704652E2,3.174688202E1,1.145631255E2
6.551070708E0,-1.431368454E1,-1.244163249E2,3.517625061E1,1.300833274E2
6.561037708E0,1.114971405E1,-1.072013736E2,2.216934860E1,1.100360425E2
6.571004708E0,1.666634216E1,-7.598648529E1,2.207758942E0,7.782407794E1
6.580971708E0,1.051458481E1,-4.663282654E1,-8.334967346E0,4.852472241E1
6.590938708E0,9.753267975E0,-3.086805954E1,-1.504177048E1,3.569619300E1
6.600905708E0,1.313653244E1,-2.319561447E1,-2.318872879E1,3.533160282E1
6.610872708E0,2.129142426E1,-2.481928802E1,-2.143976578E1,3.910224241E1
6.620838708E0,1.974154724E1,-2.432157303E1,-2.061557968E1,3.750026303E1
6.630805708E0,1.107157654E1,-2.171234894E1,-1.100002533E1,2.673960472E1
6.640772708E0,7.401059418E0,-1.934891373E1,-1.681004333E0,2.078417471E1
6.650739708E0,3.877985687E0,-1.687994797E1,-2.359094238E-1,1.732128949E1
6.660706708E0,1.142124939E0,-1.382135834E1,1.299298096E-1,1.386907630E1
6.670673708E0,-2.844085693E-1,-1.099822906E1,1.115180969E0,1.105828013E1
6.680640708E0,-1.477727051E0,-8.362360382E0,2.132764893E0,8.755651574E0
6.690607708E0,-2.320474548E0,-6.017037506E0,2.407443695E0,6.883685613E0
6.700574708E0,-2.874771881E0,-3.925287323E0,2.618654480E0,5.525354760E0
6.710540708E0,-3.159928894E0,-2.304906921E0,6.365961914E0,7.471493667E0
6.720507708E0,-2.492616577E0,-2.427951050E-1,1.256008118E1,1.280733095E1
6.730474708E0,-2.104473724E0,1.709295502E0,1.297711395E1,1.325729940E1
6.740441708E0,-1.724713440E0,2.967578888E0,1.233524872E1,1.280388698E1
6.750408708E0,-2.113005981E0,4.737049255E0,1.362541580E1,1.457931362E1
6.760375708E0,-2.436483307E0,7.440726929E0,1.420665710E1,1.622128152E1
6.770342708E0,-2.757266235E0,1.021251297E1,1.308803329E1,1.682838536E1
6.780309708E0,-3.803740082E0,1.025128235E1,1.153366562E1,1.589284968E1
6.790276708E0,-4.420607300E0,9.544751587E0,1.152992340E1,1.560715174E1
6.800243708E0,-3.752097473E0,8.598419495E0,1.110450806E1,1.453688937E1
6.810209708E0,-2.505938873E0,7.886050873E0,8.788673859E0,1.207105282E1
6.820176708E0,-1.785487061E0,7.990383911E0,7.128027191E0,1.085555023E1
6.830143708E0,-1.177301788E0,8.624465332E0,6.032156067E0,1.059029502E1
6.840110708E0,-5.397775269E-1,9.097481689E0,4.665647736E0,1.023834956E1
6.850077708E0,-3.035687256E-1,7.992329865E0,3.041974182E0,8.557049583E0
6.860044708E0,5.328918457E-2,7.446564789E0,1.894161072E0,7.683880078E0
6.870011708E0,1.981878662E-1,5.998625793E0,1.301842804E0,6.141464363E0
6.879978708E0,3.796105957E-1,4.383634186E0,6.342311096E-1,4.445514816E0
6.889945708E0,5.962101746E-1,3.113076324E0,4.176315308E-2,3.169929800E0
6.899911708E0,7.571255493E-1,2.063459015E0,-4.102967834E-1,2.235944019E0
6.909878708E0,9.114546204E-1,1.221609650E0,-8.834628296E-1,1.761699813E0
6.919845708E0,9.033714294E-1,5.483097839E-1,-1.133442993E0,1.549650469E0
6.929812708E0,8.267308044E-1,1.257385254E-2,-1.359023895E0,1.590782158E0
6.939779708E0,7.695497131E-1,-3.475772095E-1,-1.554966431E0,1.769445472E0
6.949746708E0,7.018904114E-1,-6.459068298E-1,-1.702110443E0,1.951160102E0
6.959713708E0,8.316705322E-1,-7.726931763E-1,-1.884131927E0,2.199700829E0
6.969680708E0,1.078357544E0,-7.458988953E-1,-2.166893921E0,2.532715819E0
6.979647708E0,1.082249451E0,-6.956034851E-1,-2.322270813E0,2.654820109E0
6.989613708E0,9.696835327E-1,-6.084846497E-1,-2.393672333E0,2.653338832E0
6.999580708E0,8.018824768E-1,-5.005590820E-1,-2.291434937E0,2.478759563E0
7.009547708E0,7.346722412E-1,-2.555186462E-1,-1.990261230E0,2.136860512E0
7.019514708E0,7.216493225E-1,4.116439819E-2,-1.636397095E0,1.788929206E0
7.029481708E0,6.191125488E-1,2.297721863E-1,-1.180145874E0,1.352346069E0
7.039448708E0,4.546046448E-1,3.670367432E-1,-6.665638733E-1,8.863908568E-1
7.049415708E0,2.734812927E-1,4.038601685E-1,-2.923420715E-1,5.686465861E-1
7.059382708E0,1.308279419E-1,2.921923828E-1,2.035766602E-2,3.207908564E-1
7.069349708E0,9.116043091E-2,1.751358032E-1,1.365161133E-1,2.400404610E-1
7.079315708E0,-5.912704468E-1,2.335144043E-2,8.050259399E-1,9.991059979E-1
7.089282708E0,-1.923949127E0,-1.686991882E-1,1.823058929E0,2.655858340E0
7.099249708E0,-2.599943390E0,-6.327342224E-1,2.946772156E0,3.980392489E0
7.109216708E0,-2.861599274E0,-1.909129944E0,3.816912689E0,5.138321713E0
7.119183708E0,-2.272274780E0,-4.386029205E0,4.649631042E0,6.783771348E0
7.129150708E0,-1.787283325E0,-2.417472839E1,1.829315918E1,3.036859475E1
7.139117708E0,9.138795776E0,-8.996381927E1,3.387231216E1,9.656262164E1
7.149084708E0,-1.500599487E1,-1.167563040E2,2.919543777E1,1.212830903E2
7.159050708E0,-1.027672943E1,-1.062745010E2,2.209375580E1,1.090321732E2
7.169017708E0,1.301962555E1,-8.661468384E1,8.905880127E0,8.803935942E1
7.178984708E0,9.101373596E0,-5.274356918E1,-4.405339050E-1,5.352488357E1
7.188951708E0,8.482560425E0,-3.314901627E1,-2.020947418E0,3.427674633E1
7.198918708E0,7.475155334E0,-2.578642685E1,-3.888912964E0,2.712823992E1
7.208885708E0,6.912924500E0,-2.340832214E1,-4.795278168E0,2.487433946E1
7.218852708E0,9.575138397E0,-1.995799713E1,-1.078656921E0,2.216231995E1
7.228819708E0,1.475840973E1,-1.813418976E1,-5.003345490E0,2.391010167E1
7.238786708E0,1.635004990E1,-1.966730164E1,-8.897946625E0,2.707951882E1
7.248752708E0,1.311452820E1,-1.937810303E1,-8.009993134E0,2.473179566E1
7.258719708E0,9.459279327E0,-1.677097458E1,-6.704857178E0,2.038868960E1
7.268686708E0,6.170618134E0,-1.364307907E1,-5.313799896E0,1.588856834E1
7.278653708E0,3.364104309E0,-1.117126923E1,-3.026556244E0,1.205298704E1
7.288620708E0,1.509161682E0,-9.085656281E0,-1.564696198E0,9.342108607E0
7.298587708E0,5.794450378E-1,-7.184609528E0,-4.884342957E-1,7.224468055E0
7.308554708E0,-1.395098877E-1,-5.606291656E0,8.175997925E-1,5.667313170E0
7.318521708E0,-6.927593994E-1,-4.087549896E0,1.822909241E0,4.528904706E0
7.328487708E0,-1.065484314E0,-2.537223816E0,2.158810730E0,3.497602791E0
7.338454708E0,-1.271755371E0,-1.222507782E0,2.403851166E0,2.981675272E0
7.348421708E0,-1.367107086E0,-2.219883728E-1,2.918780365E0,3.230718100E0
7.358388708E0,-1.647923126E0,4.810995483E-1,3.981869659E0,4.336172666E0
7.368355708E0,-2.114353180E0,1.033001862E0,6.584806824E0,6.992657801E0
7.378322708E0,-2.351011047E0,1.932331696E0,9.670789490E0,1.013830992E1
7.388289708E0,-2.332000580E0,3.384611664E0,1.028032196E1,1.107153298E1
7.398256708E0,-9.425898743E-1,8.477321320E0,1.103355560E1,1.394606761E1
7.408223708E0,-3.179388428E-1,1.524594589E1,1.217867432E1,1.951563628E1
7.418189708E0,-1.032552795E0,2.218177277E1,1.298669403E1,2.572452974E1
7.428156667E0,-6.716832275E0,1.529624130E1,1.171898026E1,2.040650220E1
7.438123667E0,-8.571026459E0,5.825136566E0,1.043510010E1,1.470666599E1
7.448090667E0,-4.860841827E0,6.112089844E0,8.115074615E0,1.126232043E1
7.458057667E0,-3.686533813E0,6.718628540E0,5.211412811E0,9.267649352E0
7.468024667E0,-3.205883331E0,5.645061035E0,3.444636841E0,7.349144507E0
7.477991667E0,-2.480342102E0,4.656666412E0,2.378853149E0,5.787536723E0
7.487958667E0,-1.815424805E0,3.658242645E0,1.786235504E0,4.457481772E0
7.497925667E0,-9.663903809E-1,2.615511017E0,1.143172760E0,3.013577974E0
7.507892667E0,-4.122427368E-1,1.599274292E0,6.224057007E-1,1.764939430E0
7.517858667E0,-4.156855774E-1,1.076561279E0,4.074526978E-1,1.223844920E0
7.527825667E0,-3.933819580E-1,3.989204407E-1,2.677931213E-1,6.209670190E-1
7.537792667E0,-1.387614441E-1,-6.421646118E-2,-1.092727661E-1,1.879335778E-1
7.547759667E0,1.986369324E-1,-2.670446777E-1,-3.272195435E-1,4.667356001E-1
7.557726667E0,4.438270569E-1,-4.498146057E-1,-3.074606323E-1,7.027429661E-1
7.567693667E0,4.465214539E-1,-5.755531311E-1,-4.742138672E-1,8.692074593E-1
7.577660667E0,5.447172546E-1,-6.457571411E-1,-7.905061340E-1,1.156987088E0
7.587627667E0,5.432203674E-1,-8.415499878E-1,-1.360520782E0,1.689470790E0
7.597594667E0,3.637435913E-1,-1.277144165E0,-2.349963226E0,2.699209844E0
7.607560667E0,4.007167053E-1,-1.761536865E0,-3.094065857E0,3.582852151E0
7.617527667E0,8.146060181E-1,-2.010020142E0,-3.178939362E0,3.848300846E0
7.627494667E0,1.167422333E0,-1.994153137E0,-2.940036163E0,3.739429673E0
7.637461667E0,1.383872223E0,-1.772464142E0,-2.520608368E0,3.377898460E0
7.647428667E0,1.350791016E0,-1.306932220E0,-1.965712280E0,2.719693543E0
7.657395667E0,9.964778137E-1,-7.333250427E-1,-1.355431366E0,1.835191499E0
7.667362667E0,2.932402039E-1,-4.698728943E-1,-7.691006470E-1,9.477795942E-1
7.677329667E0,-1.305285645E-1,-3.198847961E-1,-3.429368591E-1,4.867953146E-1
7.687296667E0,-3.405418396E-1,-2.056723022E-1,8.068222046E-2,4.059303649E-1
7.697262667E0,-1.121617584E0,-4.085005188E-1,7.057823181E-1,1.386732620E0
7.707229667E0,-2.249222717E0,-8.891510010E-1,1.403331757E0,2.796235390E0
7.717196667E0,-2.657872925E0,-1.727108459E0,1.987716522E0,3.741418058E0
7.727163667E0,-2.734663239E0,-5.163213043E0,3.420986023E0,6.770546309E0
7.737130667E0,3.069217529E0,-3.187726089E1,1.344354401E1,3.473195551E1
7.747097667E0,1.451771027E1,-9.374375885E1,2.072874435E1,9.709962450E1
7.757064667E0,-1.143232635E1,-1.095028377E2,2.583492599E1,1.130885182E2
7.767031667E0,-1.456620941E0,-9.625628403E1,2.581142487E1,9.966756550E1
7.776998667E0,1.626891861E1,-7.809619812E1,1.089329727E1,8.051309085E1
7.786964667E0,1.785277496E1,-4.919400055E1,-5.102439423E0,5.258142402E1
7.796931667E0,1.631861526E1,-3.319901230E1,-1.413585434E1,3.960169188E1
7.806898667E0,1.397942963E1,-2.542358139E1,-1.669987244E1,3.347638993E1
7.816865667E0,1.612985779E1,-2.039793228E1,-1.595217728E1,3.050770253E1
7.826832667E0,2.209285767E1,-2.151026917E1,-1.415336792E1,3.392792158E1
7.836799667E0,2.289893143E1,-2.250031036E1,-1.507649826E1,3.546725006E1
7.846766667E0,1.489851837E1,-2.046783691E1,-1.106364304E1,2.762792781E1
7.856733667E0,9.170978851E0,-1.740580444E1,-3.344195709E0,1.995626534E1
7.866700667E0,6.944957886E0,-1.467173996E1,-3.189866638E-1,1.623558271E1
7.876666667E0,5.158273315E0,-1.196641571E1,-3.083587646E-1,1.303449169E1
7.886633667E0,3.442840576E0,-9.629774780E0,5.239105225E-3,1.022671702E1
7.896600667E0,1.572779388E0,-7.576195221E0,8.132588196E-1,7.780344397E0
7.906567667E0,-3.562591553E-2,-5.747298431E0,1.821562042E0,6.029162192E0
7.916534667E0,-1.309027863E0,-4.228856049E0,2.504441986E0,5.086158382E0
7.926501667E0,-2.345023499E0,-2.997217255E0,3.546425171E0,5.201882157E0
7.936468667E0,-2.987188110E0,-1.885030060E0,5.757177887E0,6.754385861E0
7.946435667E0,-3.229983215E0,-4.471202087E-1,7.281308441E0,7.978105080E0
7.956402667E0,-3.343447266E0,8.464897156E-1,8.535550232E0,9.206019890E0
7.966369667E0,-3.388952637E0,1.814227295E0,1.036474640E1,1.105460938E1
7.976335667E0,-3.134182434E0,3.152893524E0,1.071741302E1,1.160287805E1
7.986302667E0,-3.010389862E0,5.064717865E0,1.105166794E1,1.252410390E1
7.996269667E0,-3.256777496E0,7.807763672E0,1.167107986E1,1.441464111E1
8.006236667E0,-3.361110535E0,1.257534943E1,1.209799210E1,1.777070314E1
8.016203667E0,-1.161883850E0,2.855716507E1,1.181627792E1,3.092710906E1
8.026170667E0,-1.814526672E0,3.395449127E1,8.438551941E0,3.503439943E1
8.036137667E0,-6.236780548E0,1.544697784E1,8.815917206E0,1.884746541E1
8.046104667E0,-7.338639221E0,6.666087799E0,7.188651123E0,1.224618541E1
8.056071667E0,-5.291945343E0,6.439309387E0,5.181924133E0,9.814363383E0
8.066038667E0,-2.933150482E0,4.687352600E0,2.761457520E0,6.180638622E0
8.076004667E0,-1.812131653E0,2.880609741E0,1.205143890E0,3.610277746E0
8.085971667E0,-1.074765015E0,1.866768036E0,5.343887329E-1,2.219349917E0
8.095938667E0,-5.893244934E-1,1.109343109E0,5.763015747E-2,1.257484285E0
8.105905667E0,-2.656974792E-1,4.487667847E-1,-1.405577087E-1,5.401326198E-1
8.115872667E0,-8.128097534E-2,-6.242019653E-2,-3.156935120E-1,3.319115415E-1
8.125839667E0,2.005828857E-2,-4.426295471E-1,-5.737568665E-1,7.249277155E-1
8.135806667E0,8.741821289E-2,-6.234535217E-1,-6.318360901E-1,8.919378243E-1
8.145773667E0,9.175918579E-2,-6.206094360E-1,-4.882846069E-1,7.949828159E-1
8.155740667E0,1.324745178E-1,-6.707551575E-1,-4.876858521E-1,8.398210937E-1
8.165707667E0,9.400451660E-2,-7.470964050E-1,-5.361849976E-1,9.243831669E-1
8.175673667E0,1.116677856E-1,-1.126557312E0,-7.255412292E-1,1.344623050E0
8.185640667E0,1.661544800E-1,-1.792372742E0,-9.801617432E-1,2.049615671E0
8.195607667E0,3.091072083E-1,-2.846331024E0,-1.232836304E0,3.117215571E0
8.205574667E0,8.405021667E-1,-3.891307983E0,-1.152154083E0,4.144415610E0
8.215541667E0,2.006726990E0,-4.770729218E0,-1.242416382E-1,5.177088609E0
8.225508667E0,2.778522034E0,-4.816983032E0,1.234931946E-1,5.562262201E0
8.235475667E0,1.487007751E0,-4.102818146E0,-1.841171265E-2,4.364017390E0
8.245442667E0,3.399430847E-1,-3.427123260E0,2.844085693E-3,3.443942978E0
8.255409667E0,2.996768188E-1,-3.252885590E0,2.088157654E-1,3.273327799E0
8.265375667E0,-1.640588379E-1,-3.256478119E0,7.756869507E-1,3.351604882E0
8.275342667E0,-7.337741089E-1,-3.376528473E0,1.314865723E0,3.697058404E0
8.285309667E0,-1.023272095E0,-3.967948608E0,1.654359741E0,4.419118475E0
8.295276667E0,-1.161734161E0,-5.262905731E0,2.132166138E0,5.796027557E0
8.305243667E0,-1.941313019E0,-7.896978149E0,3.312611389E0,8.780908515E0
8.315210667E0,-2.177671509E0,-1.349623444E1,5.414989471E0,1.470417315E1
8.325177667E0,5.105433197E0,-2.866000122E1,8.444689178E0,3.031128327E1
8.335144667E0,2.306792999E1,-6.093992477E1,1.362227234E1,6.656853708E1
8.345111667E0,2.359932495E1,-8.720266113E1,2.303918976E1,9.323109198E1
8.355077667E0,1.719594086E1,-8.284058212E1,2.823757965E1,8.919430101E1
8.365044667E0,2.604733429E1,-6.646733047E1,1.471125778E1,7.288889318E1
8.375011667E0,2.543331116E1,-4.686993347E1,-3.851640472E0,5.346474646E1
8.384978667E0,1.798869232E1,-3.273482758E1,-1.802057602E1,4.147171503E1
8.394945667E0,1.478610214E1,-2.686867630E1,-2.585124207E1,4.011036398E1
8.404912667E0,1.627550491E1,-2.471181152E1,-1.635663620E1,3.380983935E1
8.414879667E0,2.008343628E1,-2.598236938E1,-5.458548889E0,3.328999381E1
8.424846667E0,2.352702530E1,-2.655358154E1,-1.062939606E0,3.549286482E1
8.434813083E0,2.196816696E1,-2.452275467E1,5.168751526E-1,3.292769376E1
8.444780083E0,1.672921143E1,-2.120415573E1,-5.587879944E-1,2.701471783E1
8.454746083E0,1.303534286E1,-1.708397369E1,-1.467997284E0,2.153920465E1
8.464713083E0,1.056547897E1,-1.334938980E1,-1.649420013E0,1.710427258E1
8.474680083E0,8.838220825E0,-1.047401917E1,-6.322851562E-1,1.371929333E1
8.484647083E0,6.701264648E0,-8.717422028E0,8.973838806E-1,1.103203030E1
8.494614083E0,4.682562561E0,-7.498207397E0,1.685644684E0,8.999494670E0
8.504581083E0,3.362158356E0,-6.173911285E0,2.182162170E0,7.360918496E0
8.514548083E0,2.170636139E0,-4.970563660E0,2.985990601E0,6.191470278E0
8.524515083E0,7.750881958E-1,-4.102369080E0,4.204157410E0,5.924958506E0
8.534482083E0,-2.588117981E-1,-3.233426056E0,5.637875977E0,6.504434882E0
8.544448083E0,-1.061742096E0,-1.977537689E0,6.783144379E0,7.144858239E0
8.554415083E0,-1.586401062E0,-6.767427063E-1,7.593858490E0,7.787254702E0
8.564382083E0,-2.213596802E0,3.094065857E-1,8.874146118E0,9.151295677E0
8.574349083E0,-2.756817169E0,8.322692871E-1,1.116378479E1,1.152921523E1
8.584316083E0,-2.957699432E0,1.692230988E0,1.206730591E1,1.253919868E1
8.594283083E0,-3.214565277E0,3.149300995E0,1.141196869E1,1.226721468E1
8.604250083E0,-4.310436401E0,5.795947266E0,1.129775620E1,1.340940572E1
8.614217083E0,-6.063740387E0,8.881031799E0,1.133712433E1,1.562600593E1
8.624184083E0,-8.119265900E0,1.086575455E1,1.144370270E1,1.774670201E1
8.634150083E0,-9.135951691E0,1.127575195E1,1.153201904E1,1.853633347E1
8.644117083E0,-9.363628235E0,1.234512817E1,1.079764618E1,1.888567940E1
8.654084083E0,-8.896150360E0,1.592508362E1,8.709338837E0,2.021391507E1
8.664051083E0,-7.241042175E0,1.693054276E1,4.384682007E0,1.892885116E1
8.674018083E0,-4.545298004E0,1.379142059E1,2.476450195E0,1.473077803E1
8.683985083E0,-1.423539734E0,7.541168060E0,5.975573730E-1,7.697581172E0
8.693952083E0,-6.839277649E-1,3.710933075E0,-1.031355286E0,3.911837829E0
8.703919083E0,-8.807684326E-1,1.706451416E0,-2.756667480E0,3.359604897E0
8.713886083E0,-8.342152405E-1,6.695576477E-1,-3.018323364E0,3.202264580E0
8.723853083E0,-7.926017761E-1,1.622625732E-1,-2.616558838E0,2.738782005E0
8.733819083E0,-5.426216125E-1,-2.894979858E-1,-2.541115723E0,2.614482055E0
8.743786083E0,-6.391708374E-2,-6.041436768E-1,-2.278262329E0,2.357870695E0
8.753753083E0,4.366419983E-1,-8.376580811E-1,-1.984423370E0,2.197786024E0
8.763720083E0,8.767268372E-1,-9.705816650E-1,-1.861828308E0,2.275320497E0
8.773687083E0,1.212328949E0,-1.098715210E0,-1.917512512E0,2.520668726E0
8.783654083E0,1.515298920E0,-1.157991943E0,-1.825753326E0,2.640161239E0
8.793621083E0,1.738035736E0,-1.267713776E0,-1.617536316E0,2.691521906E0
8.803588083E0,1.674867096E0,-1.513502655E0,-1.726958771E0,2.842227414E0
8.813555083E0,1.429227905E0,-1.579665070E0,-1.632954254E0,2.684133703E0
8.823521083E0,1.454375610E0,-1.594484253E0,-1.403481445E0,2.574363730E0
8.833488083E0,1.600471802E0,-1.794917450E0,-1.386566620E0,2.775933290E0
8.843455083E0,1.592238922E0,-1.866318970E0,-1.219214630E0,2.739499151E0
8.853422083E0,1.313817902E0,-1.665436707E0,-8.672964478E-1,2.291724248E0
8.863389083E0,9.482780457E-1,-1.741478577E0,-2.743794250E-1,2.001814915E0
8.873356083E0,4.926255798E-1,-2.112107849E0,1.179547119E-1,2.172002036E0
8.883323083E0,7.439529419E-2,-2.393073578E0,3.679348755E-1,2.422336038E0
8.893290083E0,-2.242337036E-1,-2.885998535E0,1.220711517E0,3.141560903E0
8.903257083E0,-7.448510742E-1,-3.949686584E0,2.483036499E0,4.724436209E0
8.913223083E0,-7.854167175E-1,-5.200635223E0,3.077749786E0,6.093933860E0
8.923190083E0,-3.854484558E-1,-6.888525238E0,4.105662231E0,8.028500036E0
8.933157083E0,1.421444092E0,-1.053404434E1,5.856122131E0,1.213592847E1
8.943124083E0,1.122410934E1,-1.718426514E1,7.316335602E0,2.179009788E1
8.953091083E0,3.735332336E1,-3.036196198E1,1.432775528E1,5.022354102E1
8.963058083E0,6.160005203E1,-5.527899673E1,2.788730804E1,8.733862742E1
8.973025083E0,5.934573990E1,-7.280709686E1,3.817077347E1,1.013893394E2
8.982992083E0,5.679579254E1,-6.263574829E1,2.963537292E1,8.959494597E1
8.992959083E0,5.251050385E1,-3.837060791E1,7.321574707E0,6.544663491E1
9.002925083E0,4.104779068E1,-2.060779587E1,-1.332693649E1,4.782478026E1
9.012892083E0,3.215029312E1,-1.493833557E1,-2.381278107E1,4.270648381E1
9.022859083E0,2.689397369E1,-1.678579376E1,-2.796290085E1,4.227259771E1
9.032826083E0,2.587324631E1,-1.927975754E1,-1.901765259E1,3.745403897E1
9.042793083E0,2.491838196E1,-1.840437790E1,-5.902825012E0,3.153553913E1
9.052760083E0,2.482018616E1,-1.773092834E1,-1.440005493E0,3.053688060E1
9.062727083E0,2.190350143E1,-1.633732635E1,1.304088135E0,2.735639328E1
9.072694083E0,1.784963150E1,-1.502605316E1,2.452799377E0,2.346077243E1
9.082661083E0,1.438568481E1,-1.340342743E1,2.515518951E0,1.982240223E1
9.092627083E0,1.213855774E1,-1.107546844E1,3.408412170E0,1.678177162E1
9.102594083E0,8.947343903E0,-9.190887451E0,3.350632324E0,1.325722867E1
9.112561083E0,6.540648651E0,-7.393724670E0,2.537822571E0,1.019253613E1
9.122528083E0,4.335584106E0,-5.899082794E0,2.034868469E0,7.598497025E0
9.132495083E0,2.604134674E0,-4.668940887E0,2.041903839E0,5.722752633E0
9.142462083E0,1.014590149E0,-3.693569183E0,2.613265686E0,4.636917514E0
9.152429083E0,-5.908213806E-1,-2.969824219E0,3.705693970E0,4.785508708E0
9.162396083E0,-1.447190552E0,-2.174827423E0,5.176086273E0,5.797939627E0
9.172362083E0,-1.731898499E0,-9.945318604E-1,6.168672180E0,6.483909507E0
9.182329083E0,-2.086062012E0,-8.098159790E-2,6.741680603E0,7.057511607E0
9.192296083E0,-2.475252686E0,7.499404907E-2,7.392377472E0,7.796136521E0
9.202263083E0,-2.464026031E0,2.402503967E-1,7.287295990E0,7.696351563E0
9.212230083E0,-2.496807861E0,6.694079590E-1,7.671247559E0,8.095072305E0
9.222197083E0,-2.737058258E0,1.624122620E0,8.057294769E0,8.663097667E0
9.232164083E0,-3.690874786E0,3.089724884E0,7.911048889E0,9.260326726E0
9.242131083E0,-5.016518097E0,4.673880615E0,8.816216583E0,1.116854013E1
9.252098083E0,-6.175108795E0,5.752238159E0,9.627529449E0,1.280271595E1
9.262064083E0,-6.871161346E0,5.975723419E0,9.497000885E0,1.315732322E1
9.272031083E0,-6.901697845E0,6.498735809E0,7.848029938E0,1.230685070E1
9.281998083E0,-1.606564133E1,3.106684616E1,7.932903442E0,3.586341755E1
9.291965083E0,-1.064167053E1,2.187191711E1,7.363337860E0,2.541347388E1
9.301932083E0,-2.283202057E0,3.080893250E0,1.544637909E0,4.134104633E0
9.311899083E0,-3.093616791E0,1.892215118E0,-1.013392639E-1,3.627838551E0
9.321866083E0,-2.490371246E0,2.122586060E-1,-2.661465454E0,3.651082172E0
9.331833083E0,-2.108665009E0,-1.128652954E-1,-4.869972839E0,5.308092138E0
9.341800083E0,-1.850002899E0,-8.452922058E-1,-8.876391449E0,9.106445783E0
9.351766083E0,2.046244812E-1,-2.349065094E0,-1.053419403E1,1.079487016E1
9.361733083E0,2.530936890E0,-3.476819916E0,-8.881331177E0,9.867723230E0
9.371700083E0,3.142714691E0,-3.745660858E0,-7.083569641E0,8.607182452E0
9.381667083E0,2.433339844E0,-3.207529907E0,-5.531447296E0,6.841512997E0
9.391634083E0,1.469643860E0,-2.162702637E0,-3.953129425E0,4.739659062E0
9.401601083E0,5.825885010E-1,-7.436535645E-1,-1.979184265E0,2.193080104E0
9.411568083E0,1.002914429E-2,4.261637878E-1,-2.715353394E-1,5.054182410E-1
9.421535083E0,1.654060364E-1,8.349636841E-1,-1.445993042E-1,8.633843115E-1
9.431502792E0,5.424719238E-1,6.703060913E-1,-7.400610352E-1,1.136343425E0
9.441468792E0,6.303392029E-1,4.544549561E-1,-8.783734131E-1,1.172773069E0
9.451435792E0,5.724096680E-1,3.867956543E-1,-5.930667114E-1,9.104898848E-1
9.461402792E0,5.691165161E-1,2.502795410E-1,-3.532653809E-1,7.150733437E-1
9.471369792E0,5.427713013E-1,2.305206299E-2,-3.309617615E-1,6.361350255E-1
9.481336792E0,4.936734009E-1,-1.633103943E-1,-2.574645996E-1,5.802342042E-1
9.491303792E0,4.062551880E-1,-2.463876343E-1,-1.154100037E-1,4.889474543E-1
9.501270792E0,2.484832764E-1,-1.913021851E-1,-1.104702759E-1,3.324817987E-1
9.511237792E0,1.649569702E-1,-1.339714050E-1,6.152206421E-2,2.212331435E-1
9.521203792E0,9.580078125E-2,-1.218466187E-1,3.676354980E-1,3.989739936E-1
9.531170792E0,9.041198730E-2,-2.285746765E-1,8.605604553E-1,8.949776575E-1
9.541137792E0,1.448986816E-1,-5.393284607E-1,2.032473450E0,2.107799597E0
9.551104792E0,6.724017334E-1,-1.119821320E0,4.147425385E0,4.348248061E0
9.561071792E0,3.030448151E0,-2.461481323E0,9.456135864E0,1.023039646E1
9.571038792E0,8.127648468E0,-5.867049408E0,2.034284683E1,2.267845576E1
9.581005792E0,2.876149017E1,-2.134665939E1,3.969220963E1,5.346376987E1
9.590972792E0,7.408094788E1,-5.131538910E1,4.407749039E1,1.003198941E2
9.600938792E0,7.980743958E1,-6.925378601E1,3.720004211E1,1.120230218E2
9.610905792E0,6.927549088E1,-7.245517868E1,2.627560959E1,1.036303730E2
9.620872792E0,7.114300735E1,-5.308396133E1,5.346432037E0,8.892591738E1
9.630839792E0,4.996414902E1,-3.359224457E1,-1.297082703E1,6.158812739E1
9.640806792E0,2.817171661E1,-2.569511673E1,-2.560904572E1,4.593155629E1
9.650773792E0,1.335672455E1,-2.372311752E1,-3.997856415E1,4.836810919E1
9.660740792E0,1.190010361E1,-1.885613846E1,-3.277150131E1,3.963757966E1
9.670707792E0,2.064626587E1,-1.388168289E1,-1.405696838E1,2.857565003E1
9.680673792E0,2.065554657E1,-1.307516006E1,-9.010512543E0,2.605380493E1
9.690640792E0,1.745370483E1,-1.058463913E1,-6.355034637E0,2.137879471E1
9.700607792E0,1.366388580E1,-1.167287613E1,-2.787054291E0,1.818585945E1
9.710574792E0,1.156480087E1,-1.227088257E1,-1.721420288E-2,1.686177555E1
9.720541792E0,8.293204193E0,-1.029244675E1,1.493743744E0,1.330199106E1
9.730508792E0,5.572462006E0,-8.345146179E0,1.448238373E0,1.013859911E1
9.740475792E0,3.937861176E0,-6.598877563E0,1.771865387E0,7.886155127E0
9.750442792E0,2.245330811E0,-5.215155029E0,2.662064209E0,6.271039649E0
9.760408792E0,7.206015015E-1,-4.060456238E0,3.922143860E0,5.691202319E0
9.770375792E0,3.427871704E-2,-2.791994019E0,5.365741882E0,6.048767774E0
9.780342792E0,1.169667664E0,3.471431122E0,4.670288086E-1,3.692840693E0
9.790309792E0,3.960763550E-1,1.859672791E1,-4.226760406E0,1.907513221E1
9.800276792E0,-1.155013138E1,1.581461334E1,2.675296692E1,3.315461912E1
9.810243792E0,-1.095466965E1,3.527115326E0,3.433859253E1,3.621580134E1
9.820210792E0,-4.969665527E-1,-1.721719666E0,2.904095901E1,2.909619554E1
9.830177792E0,-8.729247437E0,-3.984264679E0,1.387779099E1,1.687208370E1
9.840143792E0,-9.174122314E0,-2.742147675E0,1.228959366E1,1.557940969E1
9.850110792E0,-5.801336060E0,-9.785151672E-1,9.336384888E0,1.103544629E1
9.860077792E0,-4.741689606E0,3.704795837E-1,5.705535278E0,7.427920857E0
9.870044792E0,-4.165388031E0,9.719288635E-1,2.524051208E0,4.966481417E0
9.880011792E0,-3.179388428E0,9.238787842E-1,7.011419678E-1,3.384326054E0
9.889978792E0,-1.176104279E0,9.761201477E-1,5.611830139E-1,1.628176339E0
9.899945792E0,-5.508544922E-2,5.292993164E-1,1.237177277E0,1.346773844E0
9.909912792E0,-1.200503540E-1,-5.414241028E-1,2.312990112E0,2.378544809E0
9.919878792E0,-5.194198608E-2,-1.241368561E0,2.991978149E0,3.239695529E0
9.929845792E0,-1.748364258E-1,-1.323996735E0,3.029849396E0,3.311121032E0
9.939812792E0,-3.156935120E-1,-1.421893158E0,4.132007446E0,4.381201671E0
9.949779792E0,-6.327342224E-1,-3.212619324E0,3.282224579E0,4.636191724E0
9.959746792E0,-1.507664795E0,-4.012256470E0,-5.076243896E0,6.643757010E0
9.969713792E0,-1.148711243E0,-3.765569458E0,-9.279802551E0,1.008036637E1
9.979680792E0,6.057902527E-1,-2.660717010E0,-9.236542511E0,9.631205241E0
9.989647792E0,2.593806152E0,-1.664388885E0,-7.301965485E0,7.925700011E0
9.999613792E0,3.535198517E0,-9.422904968E-1,-5.673651581E0,6.750989720E0
1.000958079E1,3.690425720E0,-1.866618347E-1,-4.949607239E0,6.176786904E0
1.001954779E1,3.157533875E0,3.930825806E-1,-4.523443451E0,5.530467859E0
1.002951479E1,2.152823181E0,6.565347290E-1,-3.994892578E0,4.585286492E0
1.003948179E1,1.043779449E0,7.283853149E-1,-3.006348267E0,3.264682313E0
1.004944879E1,7.484436035E-3,7.789801025E-1,-1.783690796E0,1.946386106E0
1.005941579E1,-8.098159790E-1,6.713539124E-1,-1.072669373E0,1.502377309E0
1.006938279E1,-1.375489655E0,4.543052673E-1,-6.644682312E-1,1.593701069E0
1.007934879E1,-1.610351257E0,1.721420288E-1,-4.713697815E-1,1.686728645E0
1.008931579E1,-1.712139587E0,-8.786727905E-2,-2.302212524E-1,1.729781619E0
1.009928279E1,-1.649719391E0,-1.610650635E-1,1.471440125E-1,1.664081544E0
1.010924979E1,-1.459764404E0,-2.056723022E-1,5.107379150E-1,1.560149490E0
1.011921679E1,-1.187480621E0,-5.303471375E-1,1.180445251E0,1.756368214E0
1.012918379E1,-8.020321655E-1,-1.401834869E0,2.209854584E0,2.737125112E0
1.013915079E1,-5.409750366E-1,-3.640729065E0,3.383863220E0,4.999809237E0
1.014911779E1,-4.954696655E-1,-5.960455170E0,4.087549896E0,7.244348154E0
1.015908379E1,-3.906875610E-2,-7.913294220E0,5.543123016E0,9.661675039E0
1.016905079E1,2.074835358E0,-1.278476395E1,8.713230743E0,1.561010957E1
1.017901779E1,1.808329559E1,-2.527763489E1,1.437939789E1,3.424516738E1
1.018898479E1,5.807188889E1,-5.334771286E1,3.093077911E1,8.470558330E1
1.019895179E1,7.199802933E1,-7.497204483E1,3.069516907E1,1.083822732E2
1.020891879E1,4.005415695E1,-6.498391525E1,1.816143311E1,7.846707834E1
1.021888579E1,3.663062622E1,-5.179933273E1,1.292562103E1,6.474600627E1
1.022885179E1,2.837170074E1,-3.970762756E1,-2.079176331E-1,4.880258517E1
1.023881879E1,3.379417465E1,-2.158226944E1,-1.804886719E1,4.397274385E1
1.024878579E1,3.898313416E1,-1.358679611E1,-1.510898071E1,4.396097218E1
1.025875279E1,3.216720795E1,-1.708247681E1,-3.691772919E0,3.660832512E1
1.026871979E1,2.683589447E1,-1.995934433E1,-3.385360107E0,3.361549228E1
1.027868679E1,2.352208557E1,-2.029823959E1,-2.661914520E0,3.118321390E1
1.028865379E1,2.097019226E1,-1.873129807E1,-2.952310638E0,2.827236511E1
1.029862079E1,1.793779816E1,-1.418629944E1,-1.199605408E0,2.290097700E1
1.030858679E1,1.462294144E1,-1.064331711E1,6.680607605E-1,1.809853366E1
1.031855379E1,1.150372787E1,-7.826474762E0,2.378553772E-1,1.391567596E1
1.032852079E1,8.525371399E0,-5.978717194E0,-1.154100037E-1,1.041346898E1
1.033848779E1,5.867947540E0,-4.762646027E0,9.205856323E-2,7.558047386E0
1.034845479E1,3.500021667E0,-3.798800354E0,7.279362488E-1,5.216409396E0
1.035842179E1,1.397942963E0,-2.916085968E0,1.664688263E0,3.637167705E0
1.036838879E1,-3.155438232E-1,-1.980531464E0,2.654879150E0,3.327229491E0
1.037835579E1,-2.248923340E0,3.213816833E-1,5.360053711E0,5.821607867E0
1.038832179E1,-4.751868439E0,3.528163147E0,9.031019897E0,1.079756960E1
1.039828879E1,-6.703210602E0,4.507127380E0,1.045321243E1,1.321048371E1
1.040825579E1,-8.984915771E0,5.008434906E0,1.118234619E1,1.519401191E1
1.041822279E1,-1.133877090E1,5.980513458E0,1.129356491E1,1.708446298E1
1.042819004E1,-1.354682922E1,6.890321503E0,1.110884903E1,1.882550502E1
1.043815704E1,-1.491109222E1,6.765481110E0,9.819879456E0,1.909299449E1
1.044812404E1,-1.438254135E1,5.411696320E0,6.693181458E0,1.676134335E1
1.045809104E1,-1.273162445E1,4.593647461E0,3.895798645E0,1.408449876E1
1.046805704E1,-1.116842514E1,3.846401367E0,4.702620850E0,1.271389659E1
1.047802404E1,-8.407566376E0,2.076032867E0,6.546785889E0,1.085621897E1
1.048799104E1,-4.856650543E0,4.924758911E-1,5.490731964E0,7.346953416E0
1.049795804E1,-2.337838440E0,-1.874102783E-1,4.515659637E0,5.088397896E0
1.050792504E1,-1.087638245E0,-4.046086121E-1,3.548820190E0,3.733736711E0
1.051789204E1,-4.631369019E-1,-5.212161255E-1,2.364333344E0,2.465001866E0
1.052785904E1,-3.779640198E-1,-4.712200928E-1,1.436263275E0,1.558126237E0
1.053782504E1,-3.194357300E-1,-1.592687988E-1,1.252744904E0,1.302603366E0
1.054779204E1,-1.398092651E-1,2.023791504E-1,1.273701324E0,1.297235143E0
1.055775904E1,9.729766846E-2,4.861889648E-1,7.122189331E-1,8.678147006E-1
1.056772604E1,4.099974060E-1,5.927673340E-1,5.766009521E-1,9.230057655E-1
1.057769304E1,1.201401672E0,4.046086121E-1,-9.699829102E-2,1.271409759E0
1.058766004E1,2.773582306E0,-2.754272461E-1,-1.093925171E0,2.994209621E0
1.059762704E1,4.320016479E0,-1.058748322E0,-1.393601990E0,4.661074650E0
1.060759404E1,4.201912079E0,-1.956132202E0,-1.755848694E0,4.956361866E0
1.061756004E1,2.247875519E0,-2.604883118E0,-1.487007751E0,3.748273263E0
1.062752704E1,1.575623474E0,-2.661465454E0,-4.776567078E-1,3.129559654E0
1.063749404E1,2.131866760E0,-2.751128998E0,-1.199006653E-1,3.482519607E0
1.064746104E1,2.539618835E0,-2.785707092E0,-4.040098572E-1,3.791180792E0
1.065742804E1,2.713856506E0,-2.705923004E0,-9.810598755E-1,3.955946779E0
1.066739504E1,2.747835846E0,-2.279759216E0,-1.664837952E0,3.939490998E0
1.067736204E1,1.855840759E0,-1.170266418E0,-2.645448761E0,3.436868860E0
1.068732804E1,7.429051208E-1,-1.175056458E-1,-3.140619049E0,3.229427752E0
1.069729504E1,-1.020877075E-1,3.146456909E-1,-3.331921234E0,3.348301498E0
1.070726204E1,-8.300239563E-1,2.912942505E-1,-2.878813477E0,3.010209152E0
1.071722904E1,-1.304387512E0,8.996292114E-2,-1.839824066E0,2.257093862E0
1.072719604E1,-1.721120911E0,-2.875520325E-1,-8.981323242E-1,1.962545549E0
1.073716304E1,-2.240989838E0,-7.683522034E-1,-1.591191101E-1,2.374388227E0
1.074713004E1,-2.063758392E0,-1.581461334E0,5.029541016E-2,2.600509235E0
1.075709704E1,-7.214996338E-1,-3.264710999E0,4.306544495E-1,3.371107070E0
1.076706304E1,1.625619507E0,-7.572303314E0,2.442770233E0,8.120932377E0
1.077703004E1,1.100646194E1,-1.702858887E1,6.054908752E0,2.116074109E1
1.078699704E1,4.207405655E1,-3.649485855E1,1.559921127E1,5.783974695E1
1.079696404E1,7.382527954E1,-5.895011261E1,2.770872940E1,9.845334611E1
1.080693104E1,6.094875641E1,-6.472869598E1,3.101954453E1,9.416351275E1
1.081689804E1,5.568659912E1,-4.798436600E1,2.260823593E1,7.690662542E1
1.082686504E1,5.342465286E1,-2.482826935E1,6.239474945E0,5.924160312E1
1.083683104E1,4.791655701E1,-1.077115128E1,-8.546627197E0,4.985036581E1
1.084679804E1,3.849574768E1,-6.963818665E0,-1.248957779E1,4.106588503E1
1.085676504E1,3.104095001E1,-9.756261749E0,-7.310048676E0,3.334909343E1
1.086673204E1,2.962878662E1,-1.327200073E1,-3.863166504E0,3.269457226E1
1.087669904E1,2.546279984E1,-1.360760284E1,-2.541714478E0,2.898243163E1
1.088666604E1,2.374542114E1,-1.268851410E1,-2.630030823E0,2.705107165E1
1.089663304E1,2.196158066E1,-1.196701447E1,-2.578986969E0,2.514302357E1
1.090659904E1,1.798285446E1,-1.011641281E1,-2.224973145E0,2.075271954E1
1.091656604E1,1.314581314E1,-7.909102936E0,-5.840853882E-1,1.535276744E1
1.092653304E1,9.762548676E0,-6.211782532E0,-2.267784119E-1,1.157346220E1
1.093650004E1,6.586902466E0,-4.784350891E0,-5.117857361E-1,8.157157727E0
1.094646704E1,3.819457397E0,-3.528312836E0,-2.510279846E-1,5.205791134E0
1.095643404E1,1.563498688E0,-2.538870392E0,1.612147522E-1,2.986031013E0
1.096640104E1,-1.484912109E-1,-1.800455933E0,4.617897034E-1,1.864655715E0
1.097636804E1,-1.304686890E0,-1.124162292E0,6.942562866E-1,1.856863089E0
1.098633404E1,-1.801054688E0,-5.891748047E-1,1.075663147E0,2.178985118E0
1.099630104E1,-2.118095398E0,-2.387535095E-1,1.604962463E0,2.668189623E0
1.100626804E1,-3.180585938E0,-9.610015869E-2,2.342927856E0,3.951540597E0
1.101623504E1,-4.591102753E0,5.990542603E-1,3.328478394E0,5.702267874E0
1.102620204E1,-6.492598572E0,6.321055298E0,6.881340179E0,1.137815534E1
1.103616904E1,-1.094658646E1,1.431682800E1,1.563483719E1,2.385890721E1
1.104613604E1,-1.528112274E1,1.260139526E1,1.536015839E1,2.506476293E1
1.105610204E1,-1.768138138E1,7.635172577E0,1.560025909E1,2.478497915E1
1.106606904E1,-1.680525330E1,2.640059967E0,1.200488571E1,2.082075253E1
1.107603604E1,-1.310345123E1,9.699829102E-2,7.848329315E0,1.527436139E1
1.108600304E1,-7.471263428E0,-2.228865051E-1,5.990692291E0,9.579031774E0
1.109597004E1,-5.698948975E0,-3.351530457E-1,4.077371063E0,7.015361841E0
1.110593704E1,-4.299658813E0,-5.310955811E-1,1.957180023E0,4.753912291E0
1.111590404E1,-2.297572174E0,-5.809419250E-1,1.045725403E0,2.590342262E0
1.112587004E1,-8.011340332E-1,-3.097059631E-1,1.190923462E0,1.468343357E0
1.113583704E1,-2.134561157E-1,-3.929328918E-1,7.828720093E-1,9.015810300E-1
1.114580404E1,2.192939758E-1,-7.003935242E-1,5.393284607E-1,9.107777583E-1
1.115577104E1,8.677455139E-1,-7.902067566E-1,1.100511475E0,1.608892321E0
1.116573804E1,1.171763306E0,-6.616241455E-1,3.115022278E-1,1.381234735E0
1.117570504E1,1.285227356E0,-7.488926697E-1,-4.718188477E-1,1.560532798E0
1.118567204E1,1.417552185E0,-8.666976929E-1,-6.851252747E-1,1.797224452E0
1.119563804E1,1.465901642E0,-9.635462952E-1,-1.089733887E0,2.065141407E0
1.120560504E1,1.528471527E0,-1.032702484E0,-1.570084991E0,2.422367955E0
1.121557204E1,1.850751343E0,-1.127455444E0,-2.494861908E0,3.304659173E0
1.122553904E1,2.899021454E0,-1.382225647E0,-3.539389801E0,4.779346534E0
1.123550604E1,3.524271240E0,-1.616338806E0,-3.440146179E0,5.183400876E0
1.124547304E1,3.259920959E0,-1.631906433E0,-3.169958038E0,4.831028590E0
1.125544004E1,2.143243103E0,-1.419797516E0,-2.536924438E0,3.611828012E0
1.126540604E1,1.227297821E0,-1.058448944E0,-1.719624023E0,2.362981356E0
1.127537304E1,7.140151978E-1,-7.714956665E-1,-1.001267853E0,1.451743978E0
1.128534004E1,2.686912537E-1,-6.066883850E-1,-5.406756592E-1,8.559181939E-1
1.129530704E1,-3.692820740E-1,-4.156855774E-1,-2.023791504E-1,5.917102922E-1
1.130527404E1,-7.726931763E-1,-2.507286072E-1,9.535171509E-2,8.179312494E-1
1.131524104E1,-7.960446167E-1,-1.770817566E-1,3.453318787E-1,8.856066207E-1
1.132520804E1,-1.063987427E0,-4.360432434E-1,7.271878052E-1,1.360516468E0
1.133517504E1,-1.433119812E0,-9.123527527E-1,1.152902527E0,2.053144948E0
1.134514104E1,-1.099014587E0,-1.700912933E0,1.734892273E0,2.666606283E0
1.135510804E1,-5.837860107E-3,-3.234623566E0,3.057541809E0,4.450998271E0
1.136507504E1,3.116219788E0,-7.706424408E0,6.659800873E0,1.065142012E1
1.137504204E1,2.248174896E1,-1.958167969E1,1.295555878E1,3.250719488E1
1.138500904E1,6.359285797E1,-3.980507492E1,2.152344177E1,7.804969007E1
1.139497604E1,6.930033920E1,-5.703035477E1,2.781171524E1,9.396004408E1
1.140494204E1,5.712061707E1,-5.198060577E1,2.329021774E1,8.066710924E1
1.141490904E1,5.789480713E1,-3.664349945E1,1.165236877E1,6.950059311E1
1.142487604E1,4.807268234E1,-2.155742111E1,1.811383209E0,5.271609149E1
1.143484279E1,3.739463745E1,-1.249212250E1,-4.588558044E0,3.969215161E1
1.144480979E1,3.126638123E1,-9.457483063E0,-7.290888519E0,3.346920430E1
1.145477679E1,3.210778152E1,-1.043135788E1,-1.016161880E1,3.525594075E1
1.146474379E1,3.475203278E1,-1.183229462E1,-1.350371887E1,3.911594817E1
1.147471079E1,3.413890778E1,-1.101589233E1,-1.227477448E1,3.791417936E1
1.148467679E1,3.082779327E1,-1.012404694E1,-1.050754944E1,3.410656476E1
1.149464379E1,2.645658325E1,-9.922416229E0,-7.052733765E0,2.912294962E1
1.150461079E1,2.124292511E1,-9.784253540E0,-3.061433716E0,2.358740895E1
1.151457779E1,1.600591553E1,-9.653874664E0,-2.067201233E-1,1.869302975E1
1.152454479E1,1.192001221E1,-9.028026123E0,1.600621490E0,1.503841534E1
1.153451179E1,7.823480988E0,-8.459208984E0,2.386936340E0,1.176701052E1
1.154447779E1,4.432881775E0,-7.788304138E0,2.940485229E0,9.431573334E0
1.155444479E1,2.210153961E0,-6.804250488E0,3.532055054E0,7.978597505E0
1.156441179E1,5.825885010E-1,-5.550906830E0,3.969295807E0,6.848889340E0
1.157437879E1,-7.517367554E-1,-4.150868225E0,4.477039948E0,6.151317084E0
1.158434579E1,-2.263143768E0,-2.923570404E0,4.927303619E0,6.160146474E0
1.159431279E1,-4.332440643E0,-2.231260071E0,5.538033600E0,7.376881427E0
1.160427979E1,-6.014043732E0,-1.741179199E0,6.875202942E0,9.298862431E0
1.161424679E1,-6.890471191E0,-1.278341675E0,7.897277527E0,1.055839680E1
1.162421279E1,-6.679110718E0,-4.912783813E-1,8.560697937E0,1.086910408E1
1.163417979E1,-6.562952271E0,1.333576813E0,9.636061707E0,1.173475414E1
1.164414679E1,-7.233258362E0,4.926555176E0,1.025352768E1,1.348057129E1
1.165411379E1,-1.006072861E1,2.220781860E1,8.878337402E0,2.594668268E1
1.166408079E1,-1.354144043E1,2.252500900E1,1.589514587E1,3.071485474E1
1.167404779E1,-1.260184433E1,7.880512390E0,1.528740967E1,2.132167560E1
1.168401479E1,-9.737850037E0,6.253246307E0,9.568103027E0,1.501590518E1
1.169398079E1,-8.043224030E0,5.356311493E0,4.393813019E0,1.061551310E1
1.170394779E1,-6.346951447E0,3.657943268E0,3.897894287E-1,7.335957839E0
1.171391479E1,-4.867577820E0,3.090024261E0,-1.104553070E0,5.870400434E0
1.172388179E1,-3.024161224E0,2.633024597E0,-1.029409332E0,4.139813186E0
1.173384879E1,-1.375489655E0,1.575773163E0,-1.194515991E0,2.408713620E0
1.174381579E1,-7.512876892E-1,9.195378113E-1,-9.053173828E-1,1.493178670E0
1.175378279E1,2.978805542E-2,4.725672913E-1,-5.059478760E-1,6.929577377E-1
1.176374879E1,5.511538696E-1,6.990463257E-2,-5.694158936E-1,7.955449110E-1
1.177371579E1,7.581733704E-1,-3.685336304E-1,-1.079704742E0,1.369819779E0
1.178368279E1,9.174421692E-1,-7.417076111E-1,-1.181493073E0,1.669657508E0
1.179364979E1,1.101559296E0,-1.060394897E0,-1.390159149E0,2.066497685E0
1.180361679E1,1.444945221E0,-1.343605957E0,-1.510808258E0,2.485092604E0
1.181358379E1,1.866468658E0,-1.496737518E0,-1.599274292E0,2.877778086E0
1.182354979E1,2.070344696E0,-1.612746277E0,-1.646725616E0,3.098222550E0
1.183351679E1,2.061213684E0,-1.691931610E0,-1.444496155E0,3.032788085E0
1.184348379E1,2.322121124E0,-1.716630249E0,-1.362017670E0,3.192829162E0
1.185345079E1,2.615810394E0,-1.597627716E0,-1.363364868E0,3.354644855E0
1.186341779E1,2.686313782E0,-1.489103394E0,-1.425036621E0,3.385917899E0
1.187338479E1,2.698588257E0,-1.551972656E0,-1.503623199E0,3.457149177E0
1.188335179E1,2.647394714E0,-1.839225311E0,-1.506317596E0,3.558151377E0
1.189331779E1,2.105072479E0,-1.945504303E0,-1.599573669E0,3.282522362E0
1.190328479E1,1.200802917E0,-1.672023010E0,-1.398092651E0,2.488423528E0
1.191325179E1,3.553610229E-1,-1.222058716E0,-7.397616577E-1,1.472058515E0
1.192321879E1,-3.975732422E-1,-9.469308472E-1,-1.083746338E-1,1.032708852E0
1.193318579E1,-1.031055908E0,-9.446855164E-1,3.697311401E-2,1.398883134E0
1.194315279E1,-1.202299805E0,-1.416953430E0,-2.046244812E-1,1.869532835E0
1.195311979E1,-1.076261902E-1,-2.298470306E0,-4.387376404E-1,2.342443140E0
1.196308579E1,1.235530701E0,-3.270099792E0,1.089733887E-1,3.497422474E0
1.197305279E1,3.841461639E0,-5.646707611E0,1.619931335E0,7.018996503E0
1.198301979E1,1.336001770E1,-1.254930359E1,4.741390228E0,1.893293096E1
1.199298679E1,4.125196609E1,-2.658157333E1,1.138023468E1,5.037672567E1
1.200295379E1,6.850743805E1,-4.597808807E1,1.824466003E1,8.449923829E1
1.201292079E1,6.324378387E1,-5.711193512E1,2.415496948E1,8.857207168E1
1.202288779E1,5.365083252E1,-5.011997498E1,2.059103073E1,7.625230664E1
1.203285379E1,4.679164627E1,-2.980901184E1,6.229595490E0,5.582869520E1
1.204282079E1,3.766093369E1,-1.703412735E1,-3.948938141E0,4.152230163E1
1.205278779E1,3.125665146E1,-1.178619049E1,-1.164518372E1,3.537658619E1
1.206275479E1,3.131817352E1,-1.011371841E1,-1.015548157E1,3.444196712E1
1.207272179E1,3.272419968E1,-1.260019775E1,-2.357896729E0,3.514538241E1
1.208268879E1,3.598726410E1,-1.307396255E1,-4.090992737E-1,3.829071737E1
1.209265479E1,3.229953278E1,-1.101035385E1,-6.336323547E-1,3.413047318E1
1.210262179E1,2.831167557E1,-9.089847565E0,-3.004252625E-1,2.973661981E1
1.211258879E1,2.406261154E1,-7.542365570E0,-7.683522034E-1,2.522869235E1
1.212255579E1,1.861498993E1,-7.179669800E0,-8.776249695E-1,1.997087214E1
1.213252279E1,1.410666504E1,-7.244934082E0,5.104385376E-2,1.585842596E1
1.214248979E1,1.054961197E1,-6.852001190E0,1.214574280E0,1.263801502E1
1.215245679E1,6.820865936E0,-6.598877563E0,1.924398193E0,9.683630808E0
1.216242279E1,3.604953461E0,-6.314618683E0,2.314337311E0,7.630613065E0
1.217238979E1,1.222507782E0,-5.684728546E0,2.352957001E0,6.272724334E0
1.218235679E1,-6.026467896E-1,-4.795577545E0,2.289638672E0,5.348195246E0
1.219232379E1,-1.994901581E0,-3.794459381E0,2.251168671E0,4.842036214E0
1.220229079E1,-3.197351074E0,-2.719694366E0,2.253863068E0,4.764419174E0
1.221225779E1,-4.410578156E0,-1.852098541E0,2.380050659E0,5.343043123E0
1.222222479E1,-5.834866333E0,-1.625020752E0,2.804118805E0,6.674536676E0
1.223219079E1,-5.795348511E0,-1.236428833E0,3.376827850E0,6.820394926E0
1.224215779E1,-4.578528900E0,-4.616400146E-1,4.417314148E0,6.378769683E0
1.225212479E1,-4.438270569E0,5.676196289E-1,6.263275452E0,7.697340909E0
1.226209179E1,-4.563260651E0,2.168989563E0,7.849526825E0,9.335038022E0
1.227205879E1,-5.266198883E0,4.766687622E0,1.054976166E1,1.271816153E1
1.228202579E1,-6.747967529E0,7.321125641E0,1.161913788E1,1.530157872E1
1.229199279E1,-8.881181488E0,1.013272888E1,1.114028366E1,1.748294881E1
1.230195879E1,-1.072819061E1,1.052521271E1,9.013206940E0,1.752461343E1
1.231192579E1,-1.045890060E1,9.205107880E0,6.846612396E0,1.552413328E1
1.232189279E1,-9.004375305E0,7.309898987E0,4.683460693E0,1.250792556E1
1.233185979E1,-6.714137878E0,5.754483490E0,2.147284698E0,9.099701054E0
1.234182679E1,-4.750820618E0,4.554129639E0,5.134323120E-2,6.581263514E0
1.235179379E1,-3.134032745E0,3.661535797E0,-1.213077393E0,4.969966036E0
1.236175979E1,-1.455573120E0,2.838397522E0,-1.553170166E0,3.547891087E0
1.237172679E1,-2.553689575E-1,2.050885162E0,-1.535506897E0,2.574708660E0
1.238169379E1,3.230282593E-1,1.327589264E0,-1.625918884E0,2.123782646E0
1.239166079E1,7.077282715E-1,6.198609924E-1,-1.665436707E0,1.912795436E0
1.240162779E1,9.470805359E-1,4.760101318E-2,-1.692680054E0,1.940204412E0
1.241159479E1,1.121168518E0,-4.185296631E-1,-1.899100800E0,2.244720422E0
1.242156179E1,1.346749420E0,-6.722520447E-1,-1.937121735E0,2.453181083E0
1.243152721E1,1.641935577E0,-8.072712708E-1,-1.888472900E0,2.629442762E0
1.244149421E1,1.802701263E0,-8.090675354E-1,-1.722468109E0,2.621300919E0
1.245146121E1,1.833387451E0,-8.286767578E-1,-1.562151489E0,2.547220444E0
1.246142821E1,1.791773987E0,-7.747888184E-1,-1.295106812E0,2.342659469E0
1.247139521E1,1.596430206E0,-7.114704895E-1,-9.765692139E-1,2.002115654E0
1.248136221E1,1.484163666E0,-6.357279968E-1,-7.774832153E-1,1.792030140E0
1.249132921E1,1.437909851E0,-6.203100586E-1,-6.619235229E-1,1.700150599E0
1.250129521E1,1.483564911E0,-6.236032104E-1,-5.870791626E-1,1.713040499E0
1.251126221E1,1.584006042E0,-6.051914978E-1,-3.417393494E-1,1.729773880E0
1.252122921E1,1.407373352E0,-6.357279968E-1,-2.514770508E-2,1.544500646E0
1.253119621E1,1.238823853E0,-7.212002563E-1,2.195933533E-1,1.450184674E0
1.254116321E1,9.502239990E-1,-7.855664063E-1,4.846920776E-1,1.324751538E0
1.255113021E1,6.712042236E-1,-8.821156311E-1,7.746391296E-1,1.352297629E0
1.256109621E1,4.132905579E-1,-1.181493073E0,1.232387238E0,1.756562913E0
1.257106321E1,1.080752563E-1,-1.910177765E0,1.855541382E0,2.665237921E0
1.258103021E1,6.421646118E-2,-2.973566437E0,2.665806427E0,3.994088759E0
1.259099721E1,2.910397797E0,-5.693709869E0,4.666096802E0,7.915883196E0
1.260096421E1,1.694386505E1,-1.361508728E1,9.422755280E0,2.369078896E1
1.261093121E1,4.575430344E1,-2.847483627E1,1.983824615E1,5.742672369E1
1.262089821E1,6.892297394E1,-5.058191437E1,2.899500458E1,9.027522743E1
1.263086421E1,6.478258392E1,-6.053696274E1,3.117656799E1,9.398662367E1
1.264083121E1,5.703559387E1,-4.635859680E1,2.112512009E1,7.647515390E1
1.265079821E1,4.947062531E1,-2.737627075E1,3.222498779E0,5.663203569E1
1.266076521E1,3.874168625E1,-1.490779907E1,-9.228609009E0,4.252443945E1
1.267073221E1,3.140918427E1,-9.695338440E0,-1.340761871E1,3.550071384E1
1.268069921E1,2.946068619E1,-9.575138397E0,-1.145328278E1,3.302715538E1
1.269066521E1,3.217319550E1,-1.178813644E1,-8.337062988E0,3.526444794E1
1.270063221E1,3.108690445E1,-1.120599701E1,-7.065008240E0,3.379177916E1
1.271059921E1,2.808729218E1,-9.659263458E0,-3.458258514E0,2.990245649E1
1.272056621E1,2.807232330E1,-9.704768829E0,-2.051633606E0,2.977326106E1
1.273053321E1,2.400632858E1,-9.568552094E0,-2.163002014E0,2.593336806E1
1.274050021E1,1.814616486E1,-9.872270508E0,-2.023192749E0,2.075664551E1
1.275046721E1,1.362017670E1,-1.017209702E1,-5.066963196E-1,1.700698422E1
1.276043321E1,1.003498215E1,-9.852212219E0,4.505630493E-1,1.407017979E1
1.277040021E1,6.806495819E0,-9.039701843E0,8.687933350E-1,1.134898218E1
1.278036721E1,4.226760406E0,-7.784112854E0,1.395847321E0,8.966956351E0
1.279033421E1,2.060914307E0,-6.507268066E0,1.893712006E0,7.083646704E0
1.280030121E1,2.504292297E-1,-5.337151337E0,2.454296265E0,5.879750789E0
1.281026821E1,-1.019080811E0,-4.187841339E0,3.167563019E0,5.348831298E0
1.282023421E1,-1.913171539E0,-3.100502472E0,3.936663666E0,5.363829018E0
1.283020121E1,-2.503693542E0,-1.915865936E0,4.429888000E0,5.437180458E0
1.284016821E1,-3.417543182E0,-1.272952881E0,4.490362244E0,5.784752676E0
1.285013521E1,-4.677024078E0,-1.215921478E0,4.989424438E0,6.946033076E0
1.286010221E1,-5.425617371E0,-1.004261627E0,6.145919495E0,8.259430471E0
1.287006921E1,-5.608986053E0,-6.915618896E-2,7.038213959E0,9.000109047E0
1.288003621E1,-5.318739624E0,1.686842194E0,8.303532715E0,1.000415330E1
1.289000221E1,-5.062322845E0,4.524940338E0,9.162745972E0,1.140430232E1
1.289996921E1,-5.878874817E0,7.598049774E0,9.818382568E0,1.373652670E1
1.290993621E1,-7.019053802E0,8.580756226E0,1.076037369E1,1.544934094E1
1.291990321E1,-7.788154449E0,9.128766632E0,1.024589355E1,1.577872190E1
1.292987021E1,-8.323291626E0,9.100176086E0,8.916058960E0,1.521796621E1
1.293983721E1,-9.310788116E0,1.025113266E1,8.895850983E0,1.645942468E1
1.294980321E1,-7.696544952E0,7.930358734E0,4.970413971E0,1.211744234E1
1.295977021E1,-5.190905457E0,6.111940155E0,3.237767029E0,8.647800139E0
1.296973721E1,-3.339705048E0,4.763244781E0,1.185384979E0,5.936940980E0
1.297970421E1,-2.338886261E0,3.577410736E0,-1.478176117E0,4.522528181E0
1.298967121E1,-1.666634216E0,2.760110321E0,-2.299518127E0,3.960260372E0
1.299963821E1,-7.978408813E-1,1.968107300E0,-2.253863068E0,3.096755583E0
1.300960521E1,-1.820214844E-1,1.099313965E0,-2.264790344E0,2.524063850E0
1.301957121E1,3.168910217E-1,3.742218018E-1,-2.478845215E0,2.526882561E0
1.302953821E1,7.518864441E-1,-1.935475159E-1,-2.926115112E0,3.027365772E0
1.303950521E1,1.262923737E0,-4.911286926E-1,-3.247347107E0,3.518728036E0
1.304947221E1,1.641486511E0,-5.357359314E-1,-2.943928070E0,3.412946445E0
1.305943921E1,1.924697571E0,-5.504054260E-1,-2.278412018E0,3.032914142E0
1.306940621E1,1.920206909E0,-4.629872131E-1,-1.576820984E0,2.527432719E0
1.307937221E1,1.538350983E0,-4.171824646E-1,-1.154998169E0,1.968396740E0
1.308933921E1,1.309626617E0,-4.387376404E-1,-9.645941162E-1,1.684652606E0
1.309930621E1,1.229842529E0,-4.511618042E-1,-1.003213806E0,1.649999261E0
1.310927321E1,1.126707001E0,-4.168830872E-1,-1.001866608E0,1.564287976E0
1.311924021E1,1.037492523E0,-3.799099731E-1,-9.334588623E-1,1.446398206E0
1.312920721E1,9.193881226E-1,-3.424877930E-1,-8.264314270E-1,1.282794337E0
1.313917421E1,7.632627869E-1,-3.532653809E-1,-6.062393188E-1,1.036770285E0
1.314914021E1,7.912545776E-1,-3.899391174E-1,-3.620970154E-1,9.535463127E-1
1.315910721E1,7.159611511E-1,-4.275109863E-1,-2.305206299E-1,8.651622820E-1
1.316907421E1,4.788542175E-1,-4.270619202E-1,8.232879639E-3,6.416782882E-1
1.317904121E1,2.122586060E-1,-4.183799744E-1,2.339634705E-1,5.242465300E-1
1.318900821E1,1.005908203E-1,-4.409829712E-1,6.487509155E-1,7.908617100E-1
1.319897521E1,2.079176331E-1,-7.813751221E-1,1.629810791E0,1.819357040E0
1.320894121E1,6.122268677E-1,-1.503922577E0,2.760110321E0,3.202313826E0
1.321890821E1,4.922962646E0,-4.950804749E0,6.711593170E0,9.684601786E0
1.322887521E1,3.912324280E1,-2.541624664E1,1.819855591E1,5.007795081E1
1.323884221E1,7.504988297E1,-5.490522400E1,2.911789902E1,9.744188319E1
1.324880921E1,5.832471313E1,-6.175902145E1,3.228561172E1,9.087524205E1
1.325877621E1,6.302389114E1,-4.912289841E1,2.942850311E1,8.515343092E1
1.326874221E1,6.870397934E1,-3.129272644E1,1.315389633E1,7.663221577E1
1.327870921E1,4.951672943E1,-1.682126999E1,-1.020727386E0,5.230586489E1
1.328867621E1,3.333463028E1,-9.105265503E0,-9.702373810E0,3.589205334E1
1.329864321E1,2.778447189E1,-6.932982788E0,-1.681094147E1,3.320618740E1
1.330861021E1,2.752970169E1,-1.008692413E1,-2.286360489E1,3.718030315E1
1.331857721E1,2.654010956E1,-1.406894348E1,-1.607162888E1,3.406772433E1
1.332854321E1,2.800391556E1,-1.494132935E1,-3.930825806E0,3.198302676E1
1.333851021E1,2.934318054E1,-1.425246185E1,-1.264270935E0,3.264587714E1
1.334847721E1,2.593776215E1,-1.170146667E1,-6.255491638E-1,2.846195951E1
1.335844421E1,2.097857483E1,-9.636061707E0,-2.195933533E-1,2.308684708E1
1.336841121E1,1.667053345E1,-7.927065582E0,5.301974487E-1,1.846689372E1
1.337837821E1,1.288730072E1,-6.803801422E0,1.307530975E0,1.463160521E1
1.338834521E1,1.005923172E1,-5.831124115E0,1.897304535E0,1.178091320E1
1.339831121E1,7.546257477E0,-4.927453308E0,2.354004822E0,9.314887907E0
1.340827821E1,5.220094757E0,-4.131857758E0,2.694396973E0,7.182020109E0
1.341824521E1,3.148552551E0,-3.368445282E0,3.160078583E0,5.589803524E0
1.342821221E1,1.429377594E0,-2.752176819E0,3.739373932E0,4.858036121E0
1.343817929E1,1.133143616E-1,-2.238594818E0,4.318968658E0,4.865967240E0
1.344814629E1,-1.126557312E0,-1.844614105E0,4.777315521E0,5.243517537E0
1.345811229E1,-2.163900146E0,-1.445543976E0,5.161416779E0,5.780336010E0
1.346807929E1,-3.093317413E0,-1.002615051E0,5.583389282E0,6.461275837E0
1.347804629E1,-4.226910095E0,-9.283694458E-1,6.248156891E0,7.600533094E0
1.348801329E1,-4.697980499E0,-5.520520020E-1,6.400090942E0,7.958451247E0
1.349798029E1,-4.669539642E0,2.850073242E-1,6.551875305E0,8.050645916E0
1.350794729E1,-4.455035706E0,1.315763855E0,7.287295990E0,8.641947726E0
1.351791329E1,-5.296436005E0,3.061134338E0,7.608827362E0,9.763044178E0
1.352788029E1,-6.962321777E0,5.086572418E0,9.391470337E0,1.274938660E1
1.353784729E1,-8.827293549E0,7.986941071E0,9.531129913E0,1.524974677E1
1.354781429E1,-9.591604156E0,7.034621429E0,9.862540741E0,1.545168207E1
1.355778129E1,-8.451425171E0,5.311554565E0,8.463400269E0,1.308695318E1
1.356774829E1,-7.186106415E0,4.601281586E0,6.201454010E0,1.054845721E1
1.357771429E1,-6.204747162E0,3.929029541E0,4.684957581E0,8.711198999E0
1.358768129E1,-5.226381683E0,3.511547699E0,2.935545502E0,6.947190809E0
1.359764829E1,-4.128863983E0,3.094664612E0,1.102307739E0,5.276319665E0
1.360761529E1,-3.101849670E0,2.658621368E0,-7.035369873E-3,4.085313752E0
1.361758229E1,-2.228266296E0,2.185006256E0,-7.503895569E-1,3.209751940E0
1.362754929E1,-1.677262115E0,1.764530640E0,-1.379082184E0,2.797971453E0
1.363751629E1,-1.437760162E0,1.565444641E0,-1.705852661E0,2.725381535E0
1.364748229E1,-1.160237274E0,1.367256775E0,-2.034269714E0,2.711788135E0
1.365744929E1,-6.167175293E-1,1.058448944E0,-2.725083160E0,2.987763864E0
1.366741629E1,4.775070190E-1,1.133742371E0,-5.551056519E0,5.685737700E0
1.367738329E1,2.734064484E0,9.512718201E-1,-8.692873077E0,9.162208741E0
1.368735029E1,3.173101501E0,5.990542603E-1,-5.926176453E0,6.748852235E0
1.369731729E1,2.162403259E0,5.264552307E-1,-3.270249481E0,3.955714175E0
1.370728329E1,1.223106537E0,3.320095825E-1,-1.707798615E0,2.126686641E0
1.371725029E1,7.683522034E-1,1.193019104E-1,-1.119521942E0,1.363058118E0
1.372721729E1,5.658233643E-1,1.350192261E-1,-7.785310364E-1,9.718522756E-1
1.373718429E1,4.296066284E-1,2.264790344E-1,-4.327500916E-1,6.504823210E-1
1.374715129E1,4.439767456E-1,2.827619934E-1,-4.156855774E-1,6.707191624E-1
1.375711829E1,4.766088867E-1,4.028123474E-1,-4.572990417E-1,7.736512339E-1
1.376708429E1,5.912704468E-1,5.047503662E-1,-5.400769043E-1,9.466027340E-1
1.377705129E1,5.617817688E-1,4.920268250E-1,-5.897735596E-1,9.515891991E-1
1.378701829E1,4.122427368E-1,4.206253052E-1,-5.008584595E-1,7.731293021E-1
1.379698529E1,2.433938599E-1,2.823129272E-1,-3.474275208E-1,5.095557301E-1
1.380695229E1,1.010398865E-1,9.909393311E-2,-1.558259583E-1,2.105003456E-1
1.381691929E1,4.116439819E-2,-2.035766602E-2,2.170486450E-2,5.079412749E-2
1.382688629E1,4.026626587E-2,-4.041595459E-2,1.110690308E-1,1.248645312E-1
1.383685229E1,3.382965088E-2,-6.152206421E-2,1.510359192E-1,1.665570729E-1
1.384681929E1,-8.098159790E-2,-3.743714905E-1,7.195536804E-1,8.151500053E-1
1.385678629E1,2.100132751E-1,-1.809586945E0,4.123475189E0,4.507966074E0
1.386675329E1,2.908302155E0,-4.913083191E0,9.435478821E0,1.102836654E1
1.387672029E1,4.221236893E1,-3.712175491E1,3.433500000E1,6.586957570E1
1.388668629E1,1.068270021E2,-7.053407364E1,5.847305466E1,1.407343670E2
1.389665329E1,8.544800995E1,-8.274493103E1,4.139911011E1,1.259443224E2
1.390662029E1,8.729666565E1,-6.494155334E1,1.772524017E1,1.102374588E2
1.391658729E1,7.782511185E1,-3.642734894E1,-1.664059570E1,8.752490623E1
1.392655429E1,4.463059021E1,-2.020333694E1,-3.462105515E1,5.998901454E1
1.393652129E1,2.911355804E1,-1.611144608E1,-2.018836807E1,3.891976570E1
1.394648729E1,2.177925980E1,-1.067579956E1,-1.931014435E1,3.100307288E1
1.395645429E1,1.456546097E1,-4.251908112E0,-9.028475189E0,1.765629463E1
1.396642129E1,1.846335526E1,-4.241429901E0,-4.594994659E0,1.949356793E1
1.397638829E1,2.110595993E1,-5.972729645E0,-1.306782532E0,2.197368254E1
1.398635529E1,1.647833313E1,-7.280859375E0,2.085612946E0,1.813549441E1
1.399632229E1,1.089584198E1,-7.294031982E0,5.945635986E-1,1.312538689E1
1.400628829E1,8.052355042E0,-7.801626434E0,-4.047583008E-1,1.121916334E1
1.401625529E1,5.646408234E0,-7.967780914E0,1.844165039E-1,9.767367511E0
1.402622229E1,3.253035278E0,-7.078180847E0,1.031954041E0,7.857977588E0
1.403618929E1,1.325343933E0,-5.916446686E0,2.052082672E0,6.400931278E0
1.404615629E1,-4.830455017E-1,-5.109624481E0,2.631677399E0,5.767783043E0
1.405612329E1,-1.491947479E0,-4.245920563E0,3.781436462E0,5.878180877E0
1.406608929E1,-1.830992432E0,-3.272794189E0,4.717140656E0,6.026203702E0
1.407605629E1,-2.245031433E0,-2.358196106E0,5.179529114E0,6.117906247E0
1.408602329E1,-3.118764496E0,-1.698218536E0,6.104156342E0,7.061965932E0
1.409599029E1,-3.945495300E0,-1.458716583E0,8.317154388E0,9.320399367E0
1.410595729E1,-4.803061981E0,-1.584604797E0,1.024334885E1,1.142394732E1
1.411592429E1,-4.941524048E0,-7.331753540E-1,9.823621674E0,1.102087786E1
1.412589129E1,-4.658911743E0,1.119072876E0,9.182654572E0,1.035755414E1
1.413585729E1,-5.249583435E0,3.841012573E0,8.682544556E0,1.084887477E1
1.414582429E1,-6.564149780E0,6.477629700E0,8.516090698E0,1.255275068E1
1.415579129E1,-7.988138580E0,7.582931213E0,8.484656067E0,1.390325834E1
1.416575829E1,-8.475674744E0,6.850803680E0,7.101681976E0,1.300786148E1
1.417572529E1,-7.887697449E0,5.910459137E0,5.512885895E0,1.129341441E1
1.418569229E1,-7.337890778E0,5.112318878E0,4.569547577E0,1.004296821E1
1.419565829E1,-6.899602203E0,4.740043030E0,2.354753265E0,8.695825517E0
1.420562529E1,-6.040239258E0,4.671934662E0,7.012916565E-1,7.668329268E0
1.421559229E1,-4.670437775E0,4.017794952E0,2.606080627E-1,6.166326447E0
1.422555929E1,-3.240162048E0,3.265758820E0,-3.597019958E-1,4.614457313E0
1.423552629E1,-1.987866211E0,2.581381989E0,-7.441026306E-1,3.341980516E0
1.424549329E1,-1.272952881E0,2.025138702E0,-1.234183502E0,2.691617491E0
1.425545929E1,-9.485774231E-1,1.674567719E0,-1.764979706E0,2.611346307E0
1.426542629E1,-6.348298645E-1,1.442101135E0,-1.953737183E0,2.509930999E0
1.427539329E1,-1.526824951E-1,1.151255951E0,-2.359243927E0,2.629588203E0
1.428536029E1,5.120851135E-1,8.422984314E-1,-3.056493988E0,3.211518848E0
1.429532729E1,1.727707214E0,5.876779175E-1,-4.576133881E0,4.926595056E0
1.430529429E1,3.178639984E0,3.281176758E-1,-5.147346039E0,6.058595927E0
1.431526129E1,3.373235321E0,4.167333984E-1,-3.891906738E0,5.167138600E0
1.432522729E1,2.303410034E0,3.022215271E-1,-2.296823730E0,3.266869279E0
1.433519429E1,1.551972656E0,2.695893860E-1,-1.164578247E0,1.958964026E0
1.434516129E1,1.158890076E0,1.987866211E-1,-9.318122864E-1,1.500272130E0
1.435512829E1,7.647596741E-1,3.170407104E-1,-5.580395508E-1,9.983888578E-1
1.436509529E1,6.623725891E-1,3.981719971E-1,-4.179309082E-1,8.786037959E-1
1.437506229E1,6.444099426E-1,4.634362793E-1,-3.603007507E-1,8.716960423E-1
1.438502829E1,6.035449219E-1,4.628375244E-1,-4.599934387E-1,8.888638874E-1
1.439499529E1,4.680766296E-1,4.288581848E-1,-5.132826233E-1,8.163786654E-1
1.440496229E1,2.844085693E-1,2.962339783E-1,-3.956272888E-1,5.702313178E-1
1.441492929E1,1.577719116E-1,1.502874756E-1,-2.447410583E-1,3.276835166E-1
1.442489629E1,1.173559570E-1,6.870712280E-2,-8.262817383E-2,1.591241794E-1
1.443486379E1,7.574249268E-2,-1.212478638E-2,4.864883423E-2,9.083305958E-2
1.444483079E1,2.799179077E-2,-5.014572144E-2,9.325607300E-2,1.095209061E-1
1.445479679E1,-6.242019653E-2,-1.233435059E-1,3.112028503E-1,3.405247648E-1
1.446476379E1,-1.182540894E-1,-6.027964783E-1,1.594184875E0,1.708441700E0
1.447473079E1,1.664538574E-1,-1.829196167E0,4.517156525E0,4.876306858E0
1.448469779E1,2.513722687E0,-4.130211182E0,7.279362488E0,8.738796506E0
1.449466479E1,3.268812469E1,-3.088751907E1,3.140155014E1,5.485079472E1
1.450463179E1,9.554271790E1,-6.476941132E1,5.751654373E1,1.289637173E2
1.451459779E1,8.949170105E1,-7.941884766E1,4.672009506E1,1.284479864E2
1.452456479E1,8.657606415E1,-6.543971741E1,2.595138382E1,1.115851505E2
1.453453179E1,8.282740952E1,-3.815385864E1,-5.859265594E0,9.138067460E1
1.454449879E1,5.036741043E1,-1.939771225E1,-3.398906937E1,6.378404276E1
1.455446579E1,2.907374084E1,-1.683085007E1,-2.021082138E1,3.920506627E1
1.456443279E1,2.077634537E1,-1.460632599E1,-2.327150665E1,3.444654275E1
1.457439879E1,1.593361588E1,-9.710307312E0,-1.249496658E1,2.245649957E1
1.458436579E1,1.654389679E1,-8.024213562E0,-6.046376495E0,1.935580515E1
1.459433279E1,1.672292450E1,-8.311765594E0,-5.004393311E0,1.933353572E1
1.460429979E1,1.626846954E1,-8.754095764E0,-1.864522705E0,1.856808388E1
1.461426679E1,1.329190933E1,-8.832981720E0,1.135688324E0,1.599956899E1
1.462423379E1,1.009395950E1,-8.466244354E0,1.696422272E0,1.328319090E1
1.463420079E1,8.523575134E0,-7.748936005E0,1.860331421E0,1.166868353E1
1.464416679E1,6.139333191E0,-6.728957062E0,1.763183441E0,9.277881817E0
1.465413379E1,3.966601410E0,-5.577102356E0,1.619931335E0,7.032935018E0
1.466410079E1,1.567240906E0,-4.638254700E0,1.573078766E0,5.142395115E0
1.467406779E1,-4.908293152E-1,-3.810775452E0,1.860630798E0,4.269059607E0
1.468403479E1,-1.741179199E0,-2.868035889E0,2.559527435E0,4.220013691E0
1.469400179E1,-2.192490692E0,-1.957928467E0,3.458408203E0,4.538841991E0
1.470396879E1,-2.799777832E0,-1.330133972E0,4.197421417E0,5.217888351E0
1.471393479E1,-3.688928833E0,-1.069825287E0,5.749543762E0,6.914475797E0
1.472390179E1,-4.794380035E0,-1.255738678E0,8.816515961E0,1.011404534E1
1.473386879E1,-5.438789978E0,-1.109792175E0,1.042117905E1,1.180733026E1
1.474383579E1,-5.180726624E0,-2.622546387E-1,1.008617569E1,1.134194189E1
1.475380279E1,-4.820725250E0,1.410067749E0,9.344617767E0,1.060893794E1
1.476376979E1,-5.259013824E0,3.915407867E0,9.625882874E0,1.164668478E1
1.477373679E1,-7.110962677E0,1.168754562E1,9.049581299E0,1.640303126E1
1.478370279E1,-8.368946686E0,1.062086380E1,1.038001465E1,1.704660437E1
1.479366979E1,-8.230634308E0,8.965007172E0,8.742420044E0,1.498481241E1
1.480363679E1,-8.944499817E0,7.774682465E0,6.249653778E0,1.339805720E1
1.481360379E1,-8.538544006E0,6.312223663E0,4.296215973E0,1.145462234E1
1.482357079E1,-7.784262543E0,4.948409729E0,1.211430817E0,9.303175093E0
1.483353779E1,-6.382128296E0,3.760779419E0,-1.271905060E0,7.516166969E0
1.484350379E1,-4.475842438E0,2.645748138E0,-2.555485840E0,5.793414936E0
1.485347079E1,-3.082240448E0,1.769620056E0,-3.409310303E0,4.924952595E0
1.486343779E1,-1.893861694E0,1.142723694E0,-3.207080841E0,3.895882067E0
1.487340479E1,-6.391708374E-1,6.038442993E-1,-2.440075836E0,2.593672567E0
1.488337179E1,2.724334717E-2,1.553768921E-1,-2.130369873E0,2.136202232E0
1.489333879E1,3.632945251E-1,-1.339714050E-1,-2.274819489E0,2.307538722E0
1.490330579E1,6.194119263E-1,-3.571572876E-1,-2.558778992E0,2.656799276E0
1.491327179E1,8.422984314E-1,-4.291575623E-1,-2.634820862E0,2.799272019E0
1.492323879E1,1.072369995E0,-4.195774841E-1,-2.594255219E0,2.838341560E0
1.493320579E1,1.170116730E0,-3.987707520E-1,-2.424059143E0,2.721075891E0
1.494317279E1,1.265019379E0,-4.092489624E-1,-2.244432678E0,2.608684877E0
1.495313979E1,1.298849030E0,-4.227209473E-1,-1.835183716E0,2.287706509E0
1.496310679E1,1.064735870E0,-3.999682617E-1,-1.344803467E0,1.761287441E0
1.497307279E1,8.126600647E-1,-3.519181824E-1,-9.398954773E-1,1.291381546E0
1.498303979E1,5.542973328E-1,-3.339555359E-1,-6.662644958E-1,9.288057986E-1
1.499300679E1,3.540138245E-1,-3.109034729E-1,-3.369493103E-1,5.792422594E-1
1.500297379E1,2.700384521E-1,-2.453398132E-1,-6.631210327E-2,3.708229829E-1
1.501294079E1,3.056643677E-1,-1.630110168E-1,1.007405090E-1,3.607657792E-1
1.502290779E1,3.118016052E-1,-1.112187195E-1,1.886077881E-1,3.810022865E-1
1.503287479E1,2.805166626E-1,-1.630110168E-1,2.085163879E-1,3.856699024E-1
1.504284079E1,2.106120300E-1,-2.650987244E-1,1.522334290E-1,3.712273936E-1
1.505280779E1,7.649093628E-2,-3.267704773E-1,2.079176331E-1,3.947905145E-1
1.506277479E1,-1.691482544E-2,-3.698808289E-1,2.857557678E-1,4.677117678E-1
1.507274179E1,-5.538482666E-2,-6.556365967E-1,1.235830078E0,1.400072430E0
1.508270879E1,3.601510620E-1,-1.697170715E0,3.963757324E0,4.326831329E0
1.509267579E1,1.900897064E0,-5.742059326E0,8.543334045E0,1.046772237E1
1.510264279E1,1.770518188E1,-2.449251755E1,1.822340424E1,3.529092438E1
1.511260879E1,8.228673386E1,-4.657519638E1,4.162618790E1,1.033106723E2
1.512257579E1,8.787895477E1,-6.873511459E1,4.395235062E1,1.199126173E2
1.513254279E1,7.020894974E1,-6.291985748E1,2.456840973E1,9.742593005E1
1.514250979E1,7.649617538E1,-3.643992279E1,-4.878056030E0,8.487242339E1
1.515247679E1,5.316643982E1,-1.476709167E1,-3.297612579E1,6.428189630E1
1.516244379E1,3.236509644E1,-1.085377945E1,-1.843536346E1,3.879647692E1
1.517240979E1,2.898647232E1,-1.067505112E1,-9.479636993E0,3.231154301E1
1.518237679E1,2.179557587E1,-8.384364624E0,-9.441017303E0,2.518883692E1
1.519234379E1,1.880015488E1,-7.444319458E0,-6.549779663E0,2.125472487E1
1.520231079E1,2.297392548E1,-9.808054047E0,-5.086871796E0,2.549265464E1
1.521227779E1,2.411126038E1,-1.181463135E1,-3.891906738E0,2.713089252E1
1.522224479E1,2.164349213E1,-1.268058060E1,-2.802771606E0,2.524070927E1
1.523221079E1,1.801384003E1,-1.245964005E1,-2.768492889E0,2.207726467E1
1.524217779E1,1.455393494E1,-1.142229721E1,-2.268981628E0,1.863958619E1
1.525214479E1,1.150956573E1,-1.041234741E1,-1.322948914E0,1.557681854E1
1.526211179E1,8.612639923E0,-9.167985077E0,-7.905061340E-1,1.260374614E1
1.527207879E1,6.524332581E0,-7.726183319E0,-1.487905884E-1,1.011350399E1
1.528204579E1,4.759352875E0,-6.348298645E0,8.614585876E-1,7.980880050E0
1.529201279E1,3.022215271E0,-5.122797089E0,1.726360016E0,6.193315272E0
1.530197879E1,1.546134796E0,-3.954925690E0,2.443668365E0,4.899335169E0
1.531194579E1,3.161425781E-1,-2.906056824E0,3.398832092E0,4.482986949E0
1.532191279E1,-7.247927856E-1,-2.136058044E0,4.297862549E0,4.853832614E0
1.533187979E1,-1.469793549E0,-1.441652069E0,4.816234589E0,5.237821052E0
1.534184679E1,-2.307451630E0,-9.072633362E-1,4.923860779E0,5.512881710E0
1.535181379E1,-3.299438782E0,-7.417076111E-1,6.401887207E0,7.240206231E0
1.536178079E1,-4.662953339E0,-6.411167908E-1,8.848100281E0,1.002212768E1
1.537174679E1,-5.776936798E0,-1.552272034E-1,1.046713348E1,1.195650357E1
1.538171379E1,-5.554499359E0,2.765499115E0,1.435275330E1,1.563655895E1
1.539168079E1,-9.145980835E0,1.106139771E1,8.612190857E0,1.673837853E1
1.540164779E1,-1.073971664E1,1.318997131E1,1.084225342E1,2.017105144E1
1.541161479E1,-1.142963196E1,1.388258102E1,1.358485016E1,2.253687415E1
1.542158179E1,-1.115360596E1,9.724827118E0,1.121677460E1,1.856855462E1
1.543154779E1,-1.020951920E1,6.398594055E0,8.134234772E0,1.453760859E1
1.544151517E1,-8.255183258E0,4.774471436E0,4.815785522E0,1.068341791E1
1.545148217E1,-5.387147369E0,3.156785431E0,1.629062347E0,6.452944690E0
1.546144917E1,-3.332220612E0,2.007475433E0,-8.035290527E-1,3.972318059E0
1.547141617E1,-3.286565552E0,1.814975739E0,-1.769620056E0,4.150566853E0
1.548138317E1,-2.642604675E0,1.593586121E0,-1.636846161E0,3.493156388E0
1.549134917E1,-1.312470703E0,1.236877899E0,-1.355581055E0,2.256113091E0
1.550131617E1,-4.092489624E-1,8.506809998E-1,-1.215921478E0,1.539353084E0
1.551128317E1,-1.092727661E-1,5.107379150E-1,-1.222807159E0,1.329680828E0
1.552125017E1,1.550775146E-1,1.989363098E-1,-1.251996460E0,1.277153016E0
1.553121717E1,4.260140991E-1,-8.128097534E-2,-1.413360901E0,1.478405778E0
1.554118417E1,7.204518127E-1,-3.219804382E-1,-1.854643250E0,2.015545534E0
1.555115117E1,1.059197388E0,-5.367837524E-1,-2.263293457E0,2.555882074E0
1.556111717E1,1.378633118E0,-4.219725037E-1,-1.915566559E0,2.397516488E0
1.557108417E1,1.496887207E0,-3.107537842E-1,-1.534758453E0,2.166269313E0
1.558105117E1,1.361418915E0,-2.836601257E-1,-1.118923187E0,1.784912779E0
1.559101817E1,1.090632019E0,-2.426454163E-1,-7.268884277E-1,1.332937277E0
1.560098517E1,9.231303406E-1,-1.802252197E-1,-4.616400146E-1,1.047741504E0
1.561095217E1,7.923023987E-1,-1.698966980E-1,-2.456391907E-1,8.467269873E-1
1.562091817E1,8.156538391E-1,-1.380130005E-1,-1.932481384E-1,8.495196387E-1
1.563088517E1,7.771838379E-1,-1.263372803E-1,-1.454974365E-1,8.007155115E-1
1.564085217E1,6.194119263E-1,-1.154100037E-1,2.245330811E-2,6.304718506E-1
1.565081917E1,3.785627747E-1,-9.190887451E-2,1.916015625E-1,4.341292139E-1
1.566078617E1,1.384620667E-1,-1.475930786E-1,3.167413330E-1,3.758730275E-1
1.567075317E1,3.832031250E-2,-2.444416809E-1,4.614903259E-1,5.236348944E-1
1.568072017E1,-2.844085693E-2,-4.050576782E-1,5.530998230E-1,6.861486859E-1
1.569068617E1,-1.014889526E-1,-7.137158203E-1,1.051862640E0,1.275188337E0
1.570065317E1,9.864486694E-2,-1.724264374E0,3.240760803E0,3.672240328E0
1.571062017E1,1.999392242E0,-6.743476868E0,9.616901550E0,1.191456441E1
1.572058717E1,1.539847870E1,-2.186682770E1,1.817370758E1,3.233504209E1
1.573055417E1,7.035684219E1,-4.651891342E1,3.390299835E1,9.090383846E1
1.574052117E1,8.776070068E1,-7.359670486E1,3.531231766E1,1.198556437E2
1.575048717E1,6.842301361E1,-7.319853287E1,2.680431015E1,1.037217675E2
1.576045417E1,7.107654556E1,-4.698878632E1,1.378423553E1,8.631237755E1
1.577042117E1,5.505087112E1,-2.305370956E1,-4.481231232E0,5.985109330E1
1.578038817E1,3.894137100E1,-1.133218460E1,-2.746084488E1,4.897904434E1
1.579035517E1,3.102178986E1,-9.271569672E0,-3.659979034E1,4.886571501E1
1.580032217E1,2.505519745E1,-8.537047119E0,-3.417662933E1,4.322830190E1
1.581028817E1,2.870086624E1,-8.485554199E0,-1.418270691E1,3.311938297E1
1.582025517E1,3.058424973E1,-1.139535324E1,-5.664520569E0,3.312608036E1
1.583022217E1,2.552462128E1,-1.336001770E1,1.908531189E-1,2.881028964E1
1.584018917E1,1.983210892E1,-1.289433609E1,3.029550018E0,2.384857691E1
1.585015617E1,1.460408066E1,-1.175834839E1,2.557282104E0,1.892293900E1
1.586012317E1,1.075199112E1,-1.052775742E1,1.636097717E0,1.513657177E1
1.587008917E1,7.015610962E0,-9.485923920E0,2.202220459E0,1.200213834E1
1.588005617E1,3.730392609E0,-8.091723175E0,2.545157318E0,9.266587221E0
1.589002317E1,1.475781097E0,-6.555617523E0,3.034190369E0,7.372947996E0
1.589999017E1,-4.796026611E-1,-5.438191223E0,4.078718262E0,6.814681588E0
1.590995717E1,-2.020947418E0,-4.434977417E0,5.262157288E0,7.172416084E0
1.591992417E1,-3.198398895E0,-3.608246613E0,6.478078766E0,8.075562123E0
1.592989017E1,-4.271667023E0,-2.982847137E0,7.689060516E0,9.287958216E0
1.593985717E1,-5.494174805E0,-2.628084869E0,9.207652588E0,1.103964008E1
1.594982417E1,-6.459217987E0,-2.778671722E0,1.128757736E1,1.329856820E1
1.595979117E1,-7.141499176E0,-2.705473938E0,1.168036057E1,1.395533671E1
1.596975817E1,-6.992259521E0,-1.376387787E0,1.181537979E1,1.379816423E1
1.597972517E1,-6.603368225E0,1.843266907E0,1.171673492E1,1.357512365E1
1.598969217E1,-6.715036011E0,5.851781158E0,1.015877472E1,1.351057938E1
1.599965817E1,-7.637717285E0,8.213420105E0,9.122330017E0,1.445724386E1
1.600962517E1,-8.564440155E0,7.857310638E0,7.358248444E0,1.375611812E1
1.601959217E1,-8.408165131E0,7.324269104E0,4.671186218E0,1.208975349E1
1.602955917E1,-7.825426941E0,7.128176880E0,2.446063385E0,1.086422747E1
1.603952617E1,-7.113357697E0,6.680757294E0,8.816665649E-1,9.798454555E0
1.604949317E1,-6.083648987E0,5.840105438E0,-2.155517578E-2,8.433153689E0
1.605945917E1,-5.041965179E0,5.238356781E0,-8.638536072E-1,7.321750999E0
1.606942617E1,-3.834875336E0,4.522096252E0,-1.297801208E0,6.069589058E0
1.607939317E1,-2.434088287E0,3.735781403E0,-1.711540833E0,4.776004659E0
1.608936017E1,-1.447639618E0,2.958148499E0,-1.579365692E0,3.652492162E0
1.609932717E1,-6.650669861E-1,2.244282990E0,-1.740730133E0,2.917063871E0
1.610929417E1,3.333567810E-1,1.434916077E0,-3.355871429E0,3.664967113E0
1.611926017E1,2.532433777E0,4.462220764E-1,-6.716083832E0,7.191530923E0
1.612922717E1,4.116589508E0,-3.719764709E-1,-6.834038544E0,7.986786493E0
1.613919417E1,4.047732697E0,-7.854167175E-1,-5.019811249E0,6.496116099E0
1.614916117E1,3.197201385E0,-5.272036743E-1,-3.172203369E0,4.534635005E0
1.615912817E1,2.617007904E0,-4.180805969E-1,-2.223476257E0,3.459388446E0
1.616909517E1,2.237696686E0,-2.392025757E-1,-1.234033813E0,2.566582121E0
1.617906117E1,2.107018433E0,-5.254074097E-2,-8.255332947E-1,2.263579560E0
1.618902817E1,1.968556366E0,9.580078125E-2,-9.276210022E-1,2.178272866E0
1.619899517E1,1.830842743E0,2.853067017E-1,-8.752299500E-1,2.049246820E0
1.620896217E1,1.569486237E0,4.110452271E-1,-8.616082764E-1,1.837012261E0
1.621892917E1,1.121018829E0,4.189787292E-1,-6.697073364E-1,1.371398668E0
1.622889617E1,8.063731384E-1,4.257147217E-1,-4.343966675E-1,1.010035211E0
1.623886217E1,5.746549988E-1,3.626957703E-1,-1.863624573E-1,7.046329221E-1
1.624882917E1,3.598516846E-1,2.838098145E-1,5.553451538E-2,4.616549881E-1
1.625879617E1,2.225871277E-1,1.761836243E-1,2.402503967E-1,3.718950820E-1
1.626876317E1,6.840774536E-2,4.954696655E-2,4.053570557E-1,4.140638406E-1
1.627873017E1,-0.000000000E0,-3.742218018E-3,5.605842590E-1,5.605967496E-1
1.628869717E1,-3.128494263E-2,-1.257385254E-2,7.045848083E-1,7.053910983E-1
1.629866417E1,-1.152603149E-1,-1.856140137E-2,9.205856323E-1,9.279587126E-1
1.630863017E1,-3.513194275E-1,-1.260379028E-1,1.416204987E0,1.464563914E0
1.631859717E1,-4.685256958E-2,-8.937913513E-1,2.139351196E0,2.319026021E0
1.632856417E1,6.063890076E-1,-2.818339233E0,5.089566193E0,5.849310018E0
1.633853117E1,1.348515747E1,-1.392284729E1,1.886077881E1,2.704485396E1
1.634849817E1,8.349457214E1,-6.447766800E1,5.907674927E1,1.209081286E2
1.635846417E1,9.985794434E1,-9.522313248E1,6.059294632E1,1.507002294E2
1.636843117E1,7.171601578E1,-8.092306961E1,3.167832458E1,1.126731839E2
1.637839817E1,7.997374374E1,-5.126943466E1,4.488116913E0,9.510256470E1
1.638836517E1,6.014732300E1,-2.655852127E1,-3.409370178E1,7.406372943E1
1.639833217E1,3.418231750E1,-1.774829224E1,-3.611794235E1,5.280093245E1
1.640829917E1,2.227517853E1,-1.264435593E1,-3.000734940E1,3.945255800E1
1.641826617E1,1.613345032E1,-7.514224091E0,-1.005968079E1,2.044380005E1
1.642823217E1,1.501407806E1,-6.164331207E0,-2.493664398E0,1.642071501E1
1.643819833E1,1.383198624E1,-7.181615753E0,-1.598675537E-1,1.558605164E1
1.644816533E1,1.138592285E1,-7.983348541E0,9.142987061E-1,1.393589018E1
1.645813233E1,9.285939789E0,-7.682623901E0,1.591939545E0,1.215671252E1
1.646809933E1,6.752308502E0,-6.909481659E0,1.709445190E0,9.811055487E0
1.647806533E1,3.905079346E0,-6.495292969E0,1.488354950E0,7.723579216E0
1.648803233E1,2.032772827E0,-5.605692902E0,1.704954529E0,6.201840712E0
