"Time (s)","Acceleration x (m/s^2)","Acceleration y (m/s^2)","Acceleration z (m/s^2)","Absolute acceleration (m/s^2)"
4.527583340E-3,2.930755463E0,4.598736877E0,5.685476990E0,7.877966556E0
1.446858334E-2,2.295775909E0,4.644092560E0,5.510041809E0,7.562985090E0
2.440958333E-2,1.909728699E0,4.552483063E0,6.089935913E0,7.839610014E0
3.435058333E-2,1.647623749E0,4.648433533E0,7.117399292E0,8.659097586E0
4.429158333E-2,1.754052429E0,4.934937744E0,7.537725220E0,9.178649789E0
5.423258332E-2,2.317480774E0,5.303770752E0,7.711513824E0,9.641999108E0
6.417358332E-2,3.498674469E0,5.802084503E0,8.364006958E0,1.076389892E1
7.411458332E-2,4.562961273E0,6.277795258E0,9.125473480E0,1.197938208E1
8.405558331E-2,4.619094543E0,6.380631409E0,9.318721619E0,1.220192871E1
9.399658334E-2,3.569776611E0,5.983357544E0,8.582402802E0,1.105447920E1
1.039375833E-1,1.997745667E0,5.955066376E0,7.705825653E0,9.941506540E0
1.138785833E-1,2.039209442E0,7.206763458E0,8.355025635E0,1.122061799E1
1.238195833E-1,1.829345856E0,9.403595123E0,9.531129913E0,1.351356892E1
1.337605833E-1,1.495540009E0,1.113085327E1,1.037028488E1,1.528644311E1
1.437015833E-1,1.873653717E0,1.210338089E1,1.226025467E1,1.732963507E1
1.536435833E-1,3.931723938E0,1.183738403E1,1.531944305E1,1.975518791E1
1.635845833E-1,6.627617798E0,1.113684082E1,1.876213394E1,2.280289918E1
1.735255833E-1,7.463030548E0,1.081695602E1,2.057920532E1,2.441735150E1
1.834665833E-1,4.559817810E0,1.082818268E1,1.821951233E1,2.167930137E1
1.934075833E-1,1.475930786E0,1.010009674E1,1.284688477E1,1.640831417E1
2.033485833E-1,-1.183289337E0,8.670120392E0,8.808283081E0,1.241599823E1
2.132895833E-1,-1.962868195E0,7.381150818E0,8.158334656E0,1.117553861E1
2.232305833E-1,-1.170416107E0,5.793252869E0,1.057221497E1,1.211211715E1
2.331715833E-1,5.249583435E-1,4.427642670E0,1.532498154E1,1.596040914E1
2.431125833E-1,2.456990662E0,4.196223907E0,1.671663757E1,1.740951090E1
2.530535833E-1,3.238964539E0,7.413034515E0,1.441247910E1,1.652765941E1
2.629945833E-1,1.364263000E0,1.021236328E1,1.335642517E1,1.686854086E1
2.729355833E-1,-3.189866638E-1,8.984167328E0,1.169727539E1,1.475273760E1
2.828765833E-1,-6.529421997E-1,6.604565735E0,9.555080109E0,1.163383763E1
2.928175833E-1,-1.232237549E0,5.118905182E0,7.276668091E0,8.981731355E0
3.027585833E-1,-1.378483429E0,4.523144073E0,5.395829315E0,7.174539907E0
3.126995833E-1,-5.822891235E-2,4.024381256E0,4.343966675E0,5.921915364E0
3.226405833E-1,2.120939484E0,3.650159454E0,3.782484283E0,5.668265669E0
3.325815833E-1,2.512674866E0,3.214116211E0,3.090323639E0,5.118024833E0
3.425225833E-1,2.970422974E0,3.608396301E0,3.201991425E0,5.665393684E0
3.524635833E-1,4.058959351E0,2.982398071E0,5.131628723E0,7.190511986E0
3.624045833E-1,3.297043762E0,1.081501007E0,6.060147858E0,6.983232350E0
3.723455833E-1,7.039860535E-1,4.306544495E-1,5.717061310E0,5.776318000E0
3.822865833E-1,-2.064955902E0,6.120771790E-1,4.887935486E0,5.341403810E0
3.922285833E-1,-3.150049438E0,2.118095398E-1,2.460134125E0,4.002491057E0
4.021695833E-1,1.571731567E-1,1.269510040E0,8.734336853E-1,1.548949820E0
4.121105833E-1,3.930676117E0,3.393293610E0,1.117426300E0,5.311619131E0
4.220515833E-1,3.143762512E0,3.973187714E0,1.869462433E0,5.400403052E0
4.319925833E-1,-7.848179626E-1,9.690847778E-1,2.639910278E0,2.919621691E0
4.419335833E-1,-6.126759338E-1,5.522016907E-1,2.424059143E0,2.560539247E0
4.518745833E-1,1.914518738E-1,2.692451019E0,1.639241180E0,3.158014876E0
4.618155833E-1,-1.411864014E0,5.382207642E0,2.637365570E0,6.157695692E0
4.717565833E-1,-2.384541321E0,6.540498962E0,2.760110321E0,7.488816527E0
4.816975833E-1,-2.134261780E0,4.490960999E0,1.576820984E0,5.216336689E0
4.916385833E-1,-2.354603577E0,2.782863007E0,1.088985443E0,3.804520182E0
5.015795833E-1,-2.486928406E0,2.768043823E0,2.030826874E0,4.239237820E0
5.115205833E-1,-1.738335114E0,2.291135559E0,2.684218140E0,3.933972310E0
5.214615833E-1,-3.629951477E-1,1.393302612E0,3.288212128E0,3.589623468E0
5.314025833E-1,-2.558180237E-1,2.817141724E-1,4.696483612E0,4.711874792E0
5.413435833E-1,6.879693604E-1,8.102650452E-1,4.462071075E0,4.586928119E0
5.512845833E-1,-2.204914856E-1,2.443368988E0,3.052153015E0,3.915904306E0
5.612255833E-1,-9.416917419E-1,4.301155701E0,2.938838654E0,5.293722351E0
5.711665833E-1,-8.252339172E-1,5.887856140E0,2.450554047E0,6.430635745E0
5.811075833E-1,4.887336731E-1,7.362589417E0,2.027683411E0,7.652325368E0
5.910485833E-1,2.175725555E0,8.014334106E0,2.715054016E0,8.736981811E0
6.009895833E-1,3.561693420E0,7.935747528E0,5.205425262E0,1.013697198E1
6.109305833E-1,4.106410675E0,8.210126953E0,7.542515259E0,1.188100710E1
6.208715833E-1,3.808679810E0,9.331894226E0,1.006087830E1,1.424119250E1
6.308125833E-1,2.717449036E0,1.029005173E1,1.304911423E1,1.683891552E1
6.407545833E-1,1.099613342E0,1.115390533E1,1.566627182E1,1.926267963E1
6.506955833E-1,-4.537065125E-1,1.213301926E1,1.740924728E1,2.122493573E1
6.606365833E-1,-7.951464844E-1,1.325164307E1,1.670541092E1,2.133797216E1
6.705775833E-1,-1.727407837E-1,1.396191605E1,1.438209229E1,2.004518689E1
6.805185833E-1,9.599537659E-1,1.482337463E1,1.309162582E1,1.980011650E1
6.904595833E-1,5.938151550E-1,1.468117035E1,1.306602905E1,1.966241324E1
7.004005833E-1,6.905140686E-1,1.438134384E1,1.410651535E1,2.015672681E1
7.103415833E-1,6.048921204E-1,1.352467529E1,1.527917679E1,2.041411227E1
7.202825833E-1,7.923023987E-1,1.225112366E1,1.660990952E1,2.065446364E1
7.302235833E-1,7.758366394E-1,1.084404968E1,1.769380554E1,2.076694707E1
7.401645833E-1,4.096980286E-1,9.456584930E0,1.786385193E1,2.021662822E1
7.501055833E-1,1.115180969E-1,8.441994781E0,1.678624283E1,1.878982864E1
7.600465833E-1,2.026785278E-1,7.525600433E0,1.472188568E1,1.653510382E1
7.699875833E-1,6.242019653E-1,6.448739777E0,1.167422333E1,1.335153037E1
7.799285833E-1,1.156495056E0,5.274132385E0,8.604706421E0,1.015849033E1
7.898695833E-1,1.396296387E0,4.095782776E0,6.331383820E0,7.668865706E0
7.998106250E-1,1.348545685E0,3.119962006E0,4.897964630E0,5.961777914E0
8.097516250E-1,1.970352631E0,2.015259247E0,3.898792419E0,4.810835858E0
8.196926250E-1,1.568288727E0,1.130299530E0,3.621568909E0,4.105224466E0
8.296336250E-1,1.839824066E0,5.692662048E-1,3.748954010E0,4.214697234E0
8.395746250E-1,1.565893707E0,-1.661544800E-2,3.577261047E0,3.905009062E0
8.495156250E-1,1.459015961E0,-2.396516418E-1,3.568728790E0,3.862898609E0
8.594566250E-1,1.261127472E0,-1.853146362E-1,3.027454376E0,3.284853728E0
8.693976250E-1,9.978250122E-1,3.399430847E-1,2.591261444E0,2.797472418E0
8.793396250E-1,1.279389496E0,7.370672607E-1,1.464853821E0,2.079880368E0
8.892806250E-1,6.698570251E-1,1.419348450E0,4.153862000E-1,1.623515984E0
8.992216250E-1,1.496887207E-3,2.206711121E0,-2.409988403E-2,2.206843224E0
9.091626250E-1,-7.343728638E-1,2.687062225E0,1.905537415E-1,2.792117052E0
9.191036250E-1,-1.083446960E0,2.791395264E0,8.506809998E-1,3.112780589E0
9.290446250E-1,-1.557511139E0,2.520009613E0,1.972298584E0,3.558967702E0
9.389856250E-1,-1.548978882E0,2.338137817E0,3.292702789E0,4.325287931E0
9.489266250E-1,-9.636959839E-1,2.150727539E0,4.091890869E0,4.722066262E0
9.588676250E-1,-9.375004578E-1,2.002386017E0,4.409530334E0,4.932789742E0
9.688086250E-1,-7.909552002E-1,2.016456757E0,4.726720734E0,5.199384278E0
9.787496250E-1,-2.832110596E-1,2.031425629E0,4.304149475E0,4.767871778E0
9.886906250E-1,-7.460485840E-1,2.181713104E0,3.753594360E0,4.405216360E0
9.986316250E-1,-4.543052673E-1,2.638862457E0,3.418441315E0,4.342318432E0
1.008572625E0,-1.227447510E-2,3.249442749E0,5.135520630E0,6.077219840E0
1.018513625E0,2.520758057E-1,3.493884430E0,6.614894257E0,7.485158425E0
1.028454625E0,-1.315763855E-1,3.265609131E0,6.779102783E0,7.525805597E0
1.038395625E0,1.868115234E-1,3.877087555E0,6.951843567E0,7.962087379E0
1.048336625E0,4.775070190E-2,5.342689819E0,7.264692993E0,9.017892155E0
1.058277625E0,-4.857398987E-1,6.576873322E0,7.117548981E0,9.703128847E0
1.068218625E0,2.309696960E-1,8.300538940E0,7.387886810E0,1.111454746E1
1.078159625E0,-9.250762939E-2,1.018601807E1,7.659272461E0,1.274472347E1
1.088100625E0,-1.772314453E0,1.183019897E1,8.577463074E0,1.471963244E1
1.098041625E0,-1.669178925E0,1.328891556E1,1.055200699E1,1.705069754E1
1.107982625E0,-4.418811035E-1,1.365580261E1,1.322305252E1,1.901381923E1
1.117923625E0,-1.139430542E0,1.279194901E1,1.701706284E1,2.131930320E1
1.127865625E0,-8.108638000E-1,1.185908890E1,1.954365875E1,2.287466037E1
1.137806625E0,-2.435435486E-1,1.178244827E1,2.010843430E1,2.330739219E1
1.147747625E0,2.839595032E-1,1.262759079E1,1.984243744E1,2.352145841E1
1.157688625E0,3.764671326E-1,1.334519852E1,1.946567093E1,2.360399110E1
1.167629625E0,6.147715759E-1,1.373498795E1,1.943648163E1,2.380765961E1
1.177570625E0,2.689157867E0,1.486873032E1,1.967284012E1,2.480587329E1
1.187511625E0,1.837429047E0,1.361808105E1,1.935310501E1,2.373543660E1
1.197452625E0,1.604214020E0,1.305165894E1,1.893637161E1,2.305440247E1
1.207393625E0,5.908213806E-1,1.247146545E1,1.808209808E1,2.197382060E1
1.217334625E0,-7.626640320E-1,1.156510025E1,1.704236023E1,2.061007624E1
1.227275625E0,-1.742975464E0,1.062415695E1,1.581745743E1,1.913380866E1
1.237216625E0,-2.349663849E0,9.547146606E0,1.451696182E1,1.753314316E1
1.247157625E0,-2.785108337E0,8.540190582E0,1.304836578E1,1.584144985E1
1.257098625E0,-2.812351685E0,7.567962341E0,1.101948486E1,1.366061575E1
1.267039625E0,-2.540816345E0,6.417155457E0,8.527616730E0,1.097068270E1
1.276980625E0,-2.063608704E0,5.278623047E0,5.793552246E0,8.104788077E0
1.286921625E0,-1.581611023E0,4.224814453E0,3.352428589E0,5.620438420E0
1.296862625E0,-9.264234924E-1,3.219654694E0,1.332678680E0,3.605616355E0
1.306803625E0,-3.864962769E-1,2.122735748E0,-3.740721130E-1,2.189821083E0
1.316744625E0,9.729766846E-2,1.119821320E0,-1.606758728E0,1.960902913E0
1.326685625E0,4.941224670E-1,4.046086121E-1,-2.309397583E0,2.396076447E0
1.336626625E0,9.512718201E-1,-1.272354126E-1,-2.670596466E0,2.837814724E0
1.346567625E0,1.614991608E0,-5.709127808E-1,-3.026855621E0,3.477929592E0
1.356508625E0,1.987566833E0,-1.061442719E0,-2.969225464E0,3.727382784E0
1.366449625E0,2.083517303E0,-1.343905334E0,-2.682421875E0,3.652740480E0
1.376391625E0,1.966161346E0,-1.362017670E0,-2.278112640E0,3.303131813E0
1.386332625E0,1.756297760E0,-1.281784515E0,-1.730850677E0,2.779100112E0
1.396273625E0,1.495240631E0,-1.154698792E0,-1.059496765E0,2.166011828E0
1.406214625E0,1.439406738E0,-9.235794067E-1,-4.613406372E-1,1.771362713E0
1.416155625E0,1.476978607E0,-7.807763672E-1,2.113604736E-1,1.683968762E0
1.426096625E0,1.506766663E0,-7.258406067E-1,1.101259918E0,2.002489393E0
1.436037625E0,1.629062347E0,-6.941065979E-1,1.951791229E0,2.635359008E0
1.445978625E0,1.439406738E0,-7.177574158E-1,2.909948730E0,3.324886326E0
1.455919625E0,1.308728485E0,-7.223977661E-1,3.860023041E0,4.139372737E0
1.465860625E0,1.472038879E0,-7.153623962E-1,4.435276794E0,4.727612724E0
1.475801625E0,1.397194519E0,-5.852828979E-1,4.758754120E0,4.994041386E0
1.485742625E0,1.077459412E0,-2.577639771E-1,4.981490936E0,5.103196351E0
1.495683625E0,7.888595581E-1,2.375559998E-1,5.223387909E0,5.287959295E0
1.505624625E0,4.700225830E-1,9.207353210E-1,5.551804962E0,5.647230569E0
1.515565625E0,2.604583740E-1,1.922003174E0,5.826184387E0,6.140550405E0
1.525506625E0,5.306465149E-1,3.182082825E0,6.194718018E0,6.984394615E0
1.535447625E0,1.048719177E0,4.742737427E0,6.613846436E0,8.205871976E0
1.545388625E0,1.876348114E0,6.722071381E0,6.919660492E0,9.827951323E0
1.555329625E0,2.310744781E0,8.635691986E0,7.430099030E0,1.162415972E1
1.565270625E0,2.041454773E0,9.945617981E0,8.513396301E0,1.324993476E1
1.575211625E0,1.075513458E0,1.080093933E1,1.063164139E1,1.519370982E1
1.585152625E0,8.029302979E-1,1.186597458E1,1.362541580E1,1.808585098E1
1.595093625E0,1.332678680E0,1.271710464E1,1.682620972E1,2.113343598E1
1.605034625E0,1.762734375E0,1.216101105E1,1.908635971E1,2.269992399E1
1.614975625E0,2.211650848E0,1.155387360E1,2.003104523E1,2.322985509E1
1.624916625E0,2.497256927E0,1.236368958E1,1.966355942E1,2.336135015E1
1.634857625E0,2.741698608E0,1.379725845E1,1.803599396E1,2.287309184E1
1.644799625E0,2.934946747E0,1.454270828E1,1.637669449E1,2.209752020E1
1.654740625E0,3.287313995E0,1.488459732E1,1.584080887E1,2.198383261E1
1.664681625E0,3.845353546E0,1.494342499E1,1.585143677E1,2.212149954E1
1.674622625E0,4.041146393E0,1.446771423E1,1.545296539E1,2.155086445E1
1.684563625E0,3.711831207E0,1.348800156E1,1.472832230E1,2.031323102E1
1.694504625E0,3.207679596E0,1.200892731E1,1.418704788E1,1.886202192E1
1.704445625E0,3.087629242E0,1.023376877E1,1.393661865E1,1.756396359E1
1.714386625E0,3.034040680E0,8.539292450E0,1.386491776E1,1.656384203E1
1.724327625E0,2.503394165E0,7.427105255E0,1.353485413E1,1.564036927E1
1.734268625E0,1.468446350E0,6.844067688E0,1.282757492E1,1.461315420E1
1.744209625E0,1.478924561E-1,6.435118103E0,1.131377289E1,1.301668445E1
1.754150625E0,-1.267863464E0,6.187682648E0,9.042545929E0,1.103007394E1
1.764091625E0,-2.271825714E0,5.970933380E0,6.714437256E0,9.268058328E0
1.774032625E0,-2.674638062E0,5.402714996E0,4.959935760E0,7.806662593E0
1.783973625E0,-2.546504517E0,4.386478271E0,3.774700470E0,6.322518526E0
1.793914625E0,-2.190844116E0,3.108136597E0,3.233126678E0,4.991334407E0
1.803856458E0,-1.603764954E0,2.054477692E0,3.272794189E0,4.183792827E0
1.813797458E0,-8.469387817E-1,1.571581879E0,3.571423187E0,3.992773282E0
1.823738458E0,-1.348695374E-1,1.433568878E0,3.818708954E0,4.081157629E0
1.833679458E0,2.415975952E-1,1.369651794E0,3.621419220E0,3.879303108E0
1.843620458E0,1.122665405E-1,1.282233582E0,2.937042389E0,3.206703093E0
1.853561458E0,-4.960684204E-1,1.335073700E0,1.790127411E0,2.287588645E0
1.863502458E0,-1.268911285E0,1.738035736E0,5.490582275E-1,2.220893741E0
1.873443458E0,-1.909129944E0,2.399061127E0,-4.412823486E-1,3.097579949E0
1.883384458E0,-1.972448273E0,2.930605774E0,-9.560618591E-1,3.659652534E0
1.893325458E0,-1.629511414E0,2.965932312E0,-9.428892517E-1,3.512990474E0
1.903267458E0,-9.702822876E-1,2.566712494E0,-5.918692017E-1,2.807092784E0
1.913208458E0,-5.942642212E-2,1.821562042E0,3.894900513E-1,1.863685133E0
1.923149458E0,6.902146912E-1,9.554631042E-1,1.820514221E0,2.168773407E0
1.933090458E0,1.255139923E0,2.544708252E-1,3.002905426E0,3.264593792E0
1.943031458E0,1.503623199E0,-7.559280396E-2,3.865112457E0,4.147974362E0
1.952972458E0,1.280437317E0,1.317260742E-2,4.490960999E0,4.669949029E0
1.962913458E0,6.936575317E-1,4.499642944E-1,4.942122803E0,5.010808960E0
1.972854458E0,-1.895059204E-1,1.073866882E0,5.501509552E0,5.608539019E0
1.982795458E0,-1.010398865E0,1.771715698E0,5.971681824E0,6.310377658E0
1.992736458E0,-1.254241791E0,2.570305023E0,6.282585297E0,6.902931869E0
2.002677458E0,-6.309379578E-1,3.601959686E0,6.424939270E0,7.392701868E0
2.012618458E0,7.580236816E-1,4.615651703E0,6.578220520E0,8.071668090E0
2.022559458E0,2.247725830E0,5.698799286E0,6.781946869E0,9.139113088E0
2.032500458E0,3.585493927E0,7.324119415E0,7.082521820E0,1.080095400E1
2.042441458E0,4.303251343E0,8.998387756E0,7.741301880E0,1.262603299E1
2.052382458E0,3.641178131E0,1.023017624E1,9.362730103E0,1.433790079E1
2.062323458E0,2.515069885E0,1.172391998E1,1.210023743E1,1.703501165E1
2.072264458E0,1.510957947E0,1.297861084E1,1.545955170E1,2.024166673E1
2.082205458E0,4.311035156E-1,1.270991959E1,1.850062775E1,2.244996956E1
2.092146458E0,-2.844085693E-1,1.185295166E1,2.031126251E1,2.351851900E1
2.102087458E0,3.905378723E-1,1.206715622E1,2.049582870E1,2.378755501E1
2.112028458E0,1.439107361E0,1.263582367E1,1.915267181E1,2.299043078E1
2.121969458E0,2.103126526E0,1.269779480E1,1.742152176E1,2.166025287E1
2.131910458E0,2.989134064E0,1.265752853E1,1.652563477E1,2.102961140E1
2.141851458E0,3.513194275E0,1.245260468E1,1.619482269E1,2.072877660E1
2.151792458E0,3.463198242E0,1.204754700E1,1.577464645E1,2.014886105E1
2.161733458E0,3.282673645E0,1.147109573E1,1.510778320E1,1.925115833E1
2.171674458E0,2.700983276E0,1.047985703E1,1.450483704E1,1.809732056E1
2.181616458E0,1.738784180E0,9.300609283E0,1.411938858E1,1.699652427E1
2.191557458E0,6.186634827E-1,8.213569794E0,1.368738693E1,1.597466852E1
2.201498458E0,-6.433621216E-1,7.314090271E0,1.287128403E1,1.481822472E1
2.211439458E0,-1.595831451E0,6.636898499E0,1.169517975E1,1.354150394E1
2.221380458E0,-2.058818665E0,6.000871124E0,1.006491989E1,1.189755441E1
2.231321458E0,-2.067650299E0,5.382956085E0,8.158783722E0,9.990853106E0
2.241262458E0,-1.757644958E0,4.588258667E0,6.192322998E0,7.904827481E0
2.251203458E0,-1.308429108E0,3.695964203E0,4.397255859E0,5.891349354E0
2.261144458E0,-8.940907288E-1,2.844235382E0,3.030148773E0,4.250985148E0
2.271085458E0,-6.611750793E-1,1.986818390E0,2.113305359E0,2.975005771E0
2.281026458E0,-5.147795105E-1,1.125808868E0,1.607806549E0,2.029158804E0
2.290967458E0,-1.916015625E-1,4.808001709E-1,1.368154907E0,1.462780849E0
2.300908458E0,3.538641357E-1,2.409988403E-2,9.388476562E-1,1.003611256E0
2.310849458E0,5.186714172E-1,-2.745291138E-1,6.069877625E-1,8.442869282E-1
2.320790458E0,5.312452698E-1,-2.616558838E-1,4.468208313E-1,7.418451277E-1
2.330731458E0,2.734812927E-1,5.388793945E-3,2.918930054E-1,4.000282279E-1
2.340672458E0,-7.813751221E-2,3.787124634E-1,1.901046753E-2,3.871562974E-1
2.350613458E0,-2.279759216E-1,7.325765991E-1,-4.369413757E-1,8.829265316E-1
2.360554458E0,-2.960842896E-1,1.056203613E0,-9.786648560E-1,1.470039754E0
2.370495458E0,-2.534230042E-1,1.288370819E0,-1.211131439E0,1.786326384E0
2.380436458E0,-1.860630798E-1,1.476529541E0,-1.258133698E0,1.948758414E0
2.390377458E0,-8.367599487E-2,1.575473785E0,-1.199755096E0,1.982052374E0
2.400318458E0,1.399589539E-1,1.569635925E0,-8.379574585E-1,1.784801992E0
2.410259458E0,3.745211792E-1,1.452279968E0,-5.763015747E-2,1.500901214E0
2.420200458E0,7.039860535E-1,1.312171326E0,9.333091736E-1,1.757400343E0
2.430141458E0,8.414002991E-1,1.243763580E0,1.753902740E0,2.308912543E0
2.440082458E0,7.241940308E-1,1.473535767E0,2.436932373E0,2.938435645E0
2.450023458E0,6.718029785E-1,2.079775085E0,3.063229980E0,3.762999012E0
2.459964458E0,6.557862854E-1,2.992726593E0,3.554208984E0,4.692426837E0
2.469905458E0,6.078858948E-1,4.312082977E0,3.949686584E0,5.879082325E0
2.479846458E0,4.355941772E-1,5.896837463E0,4.394112396E0,7.366862162E0
2.489788458E0,5.046006775E-1,7.891589355E0,4.880900116E0,9.292738581E0
2.499729458E0,8.536747742E-1,9.909243622E0,5.586832123E0,1.140765370E1
2.509670458E0,8.764274597E-1,1.133532806E1,6.798412628E0,1.324674306E1
2.519611458E0,2.083666992E-1,1.212508575E1,9.053173828E0,1.513344236E1
2.529552458E0,-5.839356995E-1,1.278685959E1,1.307620789E1,1.829841446E1
2.539493458E0,-7.734416199E-1,1.358664642E1,1.801982758E1,2.258117266E1
2.549434458E0,-1.073417816E0,1.330672852E1,2.238250534E1,2.606142350E1
2.559375458E0,-1.408271484E0,1.226145218E1,2.455942841E1,2.748621403E1
2.569316458E0,-1.249152374E0,1.221265366E1,2.448413498E1,2.738945338E1
2.579257458E0,-6.770420837E-1,1.330373474E1,2.278112640E1,2.638991217E1
2.589198458E0,1.555265808E-1,1.423614578E1,2.034853500E1,2.483455077E1
2.599139458E0,7.891589355E-1,1.471170685E1,1.866318970E1,2.377754697E1
2.609080458E0,1.317410431E0,1.488534576E1,1.795995209E1,2.336383889E1
2.619021458E0,1.719624023E0,1.454136108E1,1.730700989E1,2.267026423E1
2.628962458E0,1.899549866E0,1.383423157E1,1.608255615E1,2.129889352E1
2.638903458E0,1.818268890E0,1.294463150E1,1.465377731E1,1.963677102E1
2.648844458E0,1.318158875E0,1.184157532E1,1.376747040E1,1.820724279E1
2.658785458E0,7.565267944E-1,1.064840652E1,1.325299026E1,1.701771563E1
2.668726458E0,1.499880981E-1,9.470056915E0,1.274823990E1,1.588150166E1
2.678667458E0,-3.950285339E-1,8.415948944E0,1.209619583E1,1.474117355E1
2.688608458E0,-9.675878906E-1,7.466024323E0,1.107741440E1,1.339353782E1
2.698549458E0,-1.578766937E0,6.614894257E0,9.856702881E0,1.197513769E1
2.708490458E0,-2.170336761E0,5.769602051E0,8.431815948E0,1.044481640E1
2.718431458E0,-2.339185638E0,4.843627625E0,6.800358582E0,8.670489885E0
2.728372458E0,-2.148033142E0,3.882027283E0,5.084327087E0,6.747930359E0
2.738313458E0,-1.843117218E0,2.897225189E0,3.517385559E0,4.915587050E0
2.748254458E0,-1.635498962E0,1.862127686E0,2.342927856E0,3.410525959E0
2.758195458E0,-1.367556152E0,8.322692871E-1,1.632355499E0,2.286365341E0
2.768136458E0,-8.153544617E-1,5.403762817E-2,1.333576813E0,1.564017289E0
2.778078458E0,-1.468446350E-1,-4.656816101E-1,1.207089844E0,1.302109289E0
2.788019458E0,4.020639038E-1,-7.782316589E-1,8.887019348E-1,1.247834535E0
2.797960458E0,7.547305298E-1,-9.547146606E-1,2.814147949E-1,1.249116705E0
2.807900750E0,8.554710388E-1,-1.053658905E0,-4.261637878E-1,1.422548193E0
2.817841750E0,7.451504517E-1,-8.455915833E-1,-1.199006653E0,1.645567159E0
2.827782750E0,4.451742554E-1,-3.884422302E-1,-2.131567383E0,2.211932863E0
2.837723750E0,1.968406677E-1,2.320175171E-2,-2.833308105E0,2.840232278E0
2.847664750E0,-9.804611206E-2,3.369493103E-1,-3.028502197E0,3.048765887E0
2.857605750E0,-3.216810608E-1,5.333409119E-1,-2.427951050E0,2.506566882E0
2.867546750E0,-4.165837097E-1,4.215234375E-1,-1.242266693E0,1.376390400E0
2.877487750E0,-3.594026184E-1,-1.751358032E-2,3.071612549E-1,4.731014734E-1
2.887428750E0,-2.627037048E-1,-6.505471802E-1,1.906884613E0,2.031854768E0
2.897369750E0,-1.642085266E-1,-1.331481171E0,3.330574036E0,3.590616932E0
2.907310750E0,6.840774536E-2,-1.710792389E0,4.304897919E0,4.632886391E0
2.917251750E0,2.718347168E-1,-1.447489929E0,4.463717651E0,4.700414501E0
2.927192750E0,4.206253052E-2,-5.545967102E-1,4.113446045E0,4.150877634E0
2.937133750E0,-3.445834351E-1,9.439370728E-1,3.680845642E0,3.815544467E0
2.947074750E0,-5.789959717E-1,2.875969391E0,3.415447540E0,4.502412484E0
2.957015750E0,-4.947212219E-1,5.147645416E0,3.979474640E0,6.525275537E0
2.966956750E0,3.778143311E-1,7.876620483E0,5.466482391E0,9.595119783E0
2.976897750E0,1.798210602E0,1.022882904E1,6.914720764E0,1.247701359E1
2.986838750E0,2.703827362E0,1.153127060E1,8.640781403E0,1.466096816E1
2.996779750E0,2.965333557E0,1.251801865E1,1.185295166E1,1.749246858E1
3.006720750E0,3.307521973E0,1.381492172E1,1.648162628E1,2.175857920E1
3.016661750E0,2.965782623E0,1.485091736E1,2.125684616E1,2.609979160E1
3.026602750E0,1.163380737E0,1.479807724E1,2.448578156E1,2.863372213E1
3.036543750E0,-1.678010559E-1,1.477233078E1,2.501014114E1,2.904749686E1
3.046484750E0,-2.983296204E-1,1.545730637E1,2.361863480E1,2.822865973E1
3.056425750E0,9.677375793E-1,1.663520691E1,2.146835632E1,2.717640425E1
3.066366750E0,2.046095123E0,1.720192841E1,1.972118958E1,2.624915550E1
3.076307750E0,2.412533112E0,1.757629990E1,1.892065430E1,2.593718938E1
3.086248750E0,2.545456696E0,1.788855057E1,1.836560852E1,2.576383449E1
3.096190750E0,2.489473114E0,1.752570511E1,1.740041565E1,2.482181058E1
3.106131750E0,2.063459015E0,1.620979156E1,1.629870667E1,2.307949403E1
3.116072750E0,1.303489380E0,1.426817917E1,1.533875290E1,2.098945835E1
3.126013750E0,6.066883850E-1,1.201850739E1,1.450363953E1,1.884590539E1
3.135954750E0,2.541714478E-1,9.802814941E0,1.362332016E1,1.678554843E1
3.145895750E0,1.778302002E-1,7.823780365E0,1.225965591E1,1.454449469E1
3.155836750E0,1.577719116E-1,6.252348175E0,1.071202423E1,1.240420142E1
3.165777750E0,2.664459229E-2,4.978347473E0,9.013955383E0,1.029738050E1
3.175718750E0,-2.281256104E-1,3.899091797E0,7.173981628E0,8.168290552E0
3.185659750E0,-4.327500916E-1,2.808310089E0,5.107379150E0,5.844587238E0
3.195600750E0,-6.066883850E-1,1.878294067E0,2.959346008E0,3.557216355E0
3.205541750E0,-5.980064392E-1,1.086440735E0,1.023721161E0,1.608095205E0
3.215482750E0,-6.176156616E-1,1.923500061E-1,-4.813989258E-1,8.063451842E-1
3.225423750E0,-5.278024292E-1,-7.153623962E-1,-1.320853271E0,1.592159580E0
3.235364750E0,-1.508862305E-1,-1.306034088E0,-1.712588654E0,2.159039506E0
3.245305750E0,2.320175171E-1,-1.671424255E0,-1.952689362E0,2.580791916E0
3.255246750E0,4.863386536E-1,-1.913620605E0,-2.114652557E0,2.893134035E0
3.265187750E0,8.506809998E-1,-2.124082947E0,-2.311343536E0,3.252336925E0
3.275128750E0,1.184935913E0,-2.352208557E0,-2.453248444E0,3.599359129E0
3.285069750E0,1.351389771E0,-2.424957275E0,-2.380799103E0,3.657167820E0
3.295010750E0,1.172960815E0,-2.200424194E0,-2.161654816E0,3.300068977E0
3.304951750E0,8.339158630E-1,-1.688488770E0,-1.954934692E0,2.714439103E0
3.314892750E0,6.405180359E-1,-1.127754822E0,-1.821711731E0,2.236230740E0
3.324833750E0,4.387376404E-1,-6.718029785E-1,-1.504221954E0,1.704844171E0
3.334774750E0,2.537223816E-1,-3.594026184E-1,-9.354048157E-1,1.033696018E0
3.344715750E0,2.727328491E-1,-1.005908203E-1,-1.350192261E-1,3.205181922E-1
3.354656750E0,4.815486145E-1,1.366658020E-1,9.608518982E-1,1.083421885E0
3.364597750E0,6.294410706E-1,1.823208618E-1,2.150877228E0,2.248490562E0
3.374538750E0,6.427633667E-1,3.168910217E-1,3.612138519E0,3.682541154E0
3.384479750E0,9.737251282E-1,9.160949707E-1,4.949307861E0,5.126696688E0
3.394420750E0,1.315763855E0,1.941163330E0,5.840704193E0,6.293899830E0
3.404361750E0,1.203347626E0,3.418291626E0,6.414161682E0,7.367104807E0
3.414302750E0,1.223405914E0,5.660329285E0,6.645131378E0,8.814409831E0
3.424243750E0,1.314117279E0,8.622369690E0,6.711293793E0,1.100516368E1
3.434184750E0,1.584155731E0,1.172077652E1,6.924600220E0,1.370533618E1
3.444126750E0,1.345701599E0,1.388467667E1,7.717800751E0,1.594238399E1
3.454067750E0,5.536985779E-1,1.465437607E1,9.591604156E0,1.752301887E1
3.464008750E0,4.873864746E-1,1.454600143E1,1.250933670E1,1.919133158E1
3.473949750E0,1.541045380E0,1.451681213E1,1.599828140E1,2.165773911E1
3.483890750E0,2.542313232E0,1.413675247E1,1.881542313E1,2.367131755E1
3.493831750E0,2.325713654E0,1.304612045E1,2.008358597E1,2.406160070E1
3.503772750E0,2.025737457E0,1.256127869E1,1.987776398E1,2.360116173E1
3.513713750E0,2.212848358E0,1.310270279E1,1.843341751E1,2.272374088E1
3.523654750E0,2.504591675E0,1.370894211E1,1.631547180E1,2.145699637E1
3.533595750E0,3.003953247E0,1.406639877E1,1.452714066E1,2.044321709E1
3.543536750E0,3.860172729E0,1.402957535E1,1.326017532E1,1.968659868E1
3.553477750E0,4.465813293E0,1.361867981E1,1.211849945E1,1.876885604E1
3.563418750E0,4.482129364E0,1.295615753E1,1.083671494E1,1.747529377E1
3.573359750E0,3.761677551E0,1.178095139E1,9.754166107E0,1.575070760E1
3.583300750E0,2.644700317E0,1.037776932E1,9.318272552E0,1.419587050E1
3.593241750E0,1.393452301E0,9.086853790E0,9.169182587E0,1.298408759E1
3.603182750E0,-3.469784546E-1,7.955207062E0,8.808283081E0,1.187398687E1
3.613123750E0,-1.897005157E0,7.177424469E0,8.431965637E0,1.123441565E1
3.623064750E0,-2.853965149E0,6.457272034E0,8.064180450E0,1.071785825E1
3.633005750E0,-3.243604889E0,5.631589050E0,7.600744171E0,1.000035399E1
3.642946750E0,-3.019221497E0,4.709656219E0,7.152276764E0,9.080287609E0
3.652887750E0,-2.459685059E0,3.639681244E0,6.691834259E0,8.004872010E0
3.662828750E0,-1.850152588E0,2.586471405E0,6.286477203E0,7.045047520E0
3.672769750E0,-1.312919769E0,1.729503479E0,6.062243500E0,6.439389478E0
3.682710750E0,-9.340576172E-1,9.499246216E-1,5.923781433E0,6.071738374E0
3.692651750E0,-6.586303711E-1,4.105961609E-1,5.811514893E0,5.863112528E0
3.702592750E0,-3.034190369E-1,1.083746338E-1,5.399421844E0,5.409026200E0
3.712533750E0,-2.600093079E-1,2.290237427E-2,4.418960724E0,4.426662765E0
3.722474750E0,-4.758604431E-1,7.409591675E-2,3.247347107E0,3.282864085E0
3.732415750E0,-7.141648865E-1,2.971321106E-1,2.156715088E0,2.291230880E0
3.742356750E0,-8.143066406E-1,6.798861694E-1,1.211131439E0,1.610024805E0
3.752297750E0,-8.620573425E-1,1.063538361E0,5.307962036E-1,1.468332836E0
3.762238750E0,-8.918453979E-1,1.420096893E0,1.371148682E-1,1.682517128E0
3.772179750E0,-9.270222473E-1,1.674418030E0,1.076261902E-1,1.916932284E0
3.782120750E0,-8.315208435E-1,1.750759277E0,5.698649597E-1,2.020230440E0
3.792061750E0,-7.554789734E-1,1.629960480E0,1.492396545E0,2.335544282E0
3.802003583E0,-6.433621216E-1,1.568737793E0,2.711162109E0,3.197694961E0
3.811945583E0,-3.367996216E-1,1.511706390E0,3.806135101E0,4.109179310E0
3.821886583E0,-1.916015625E-2,1.635199585E0,4.697082367E0,4.973613129E0
3.831827583E0,1.889071655E-1,2.177521820E0,5.429060211E0,5.852519284E0
3.841768583E0,3.471281433E-1,2.951262817E0,5.972879333E0,6.671262077E0
3.851709583E0,5.165757751E-1,4.011508026E0,6.253246307E0,7.447290551E0
3.861650583E0,7.400610352E-1,5.431754608E0,6.735243988E0,8.684190235E0
3.871591583E0,8.304730225E-1,7.222929840E0,7.693102112E0,1.058509428E1
3.881532583E0,8.473878479E-1,9.167236633E0,8.997489624E0,1.287288286E1
3.891473583E0,5.637277222E-1,1.073866882E1,1.033735336E1,1.491635584E1
3.901414583E0,-5.538482666E-3,1.185968765E1,1.148666336E1,1.651047113E1
3.911355583E0,-2.335144043E-2,1.281559982E1,1.286903870E1,1.816183639E1
3.921296583E0,5.619314575E-1,1.384949982E1,1.472323288E1,2.022122644E1
3.931237583E0,1.139580231E0,1.417477341E1,1.620694748E1,2.156126135E1
3.941178583E0,1.151854706E0,1.331166824E1,1.682546127E1,2.148542361E1
3.951119583E0,1.464105377E0,1.282727554E1,1.650273239E1,2.095287042E1
3.961060583E0,2.162552948E0,1.330044159E1,1.527468613E1,2.036895721E1
3.971001583E0,2.922971649E0,1.385533768E1,1.387000717E1,1.982148441E1
3.980942583E0,3.778592377E0,1.384560791E1,1.294762527E1,1.932924259E1
3.990883583E0,4.513264618E0,1.345342346E1,1.257969040E1,1.896345883E1
4.000824583E0,4.812941437E0,1.282952087E1,1.205113953E1,1.824804031E1
4.010765583E0,4.376598816E0,1.189306824E1,1.130554001E1,1.698278317E1
4.020706583E0,3.213667145E0,1.081530945E1,1.088551346E1,1.567778614E1
4.030647583E0,1.748513947E0,9.806257782E0,1.088521408E1,1.475492725E1
4.040588583E0,3.998185730E-1,8.687633972E0,1.106034988E1,1.407004543E1
4.050529583E0,-8.574169922E-1,7.643854523E0,1.123174347E1,1.361307229E1
4.060470583E0,-1.891017609E0,7.044201508E0,1.115450409E1,1.332740350E1
4.070411583E0,-2.625989227E0,6.626719666E0,1.041010208E1,1.261663419E1
4.080352583E0,-3.053350525E0,6.288273468E0,8.851842499E0,1.127920424E1
4.090293583E0,-3.274889832E0,5.918392639E0,6.923402710E0,9.679141487E0
4.100234583E0,-3.384012909E0,5.321134644E0,5.154231720E0,8.144453443E0
4.110175583E0,-3.265908508E0,4.532424774E0,3.983815613E0,6.861473570E0
4.120116583E0,-2.807262268E0,3.693120117E0,3.419638824E0,5.763140405E0
4.130057583E0,-2.224374390E0,2.887944489E0,3.357518005E0,4.955904756E0
4.139998583E0,-1.772763519E0,2.156266022E0,3.499273224E0,4.476280459E0
4.149939583E0,-1.384620667E0,1.540147247E0,3.585044861E0,4.140262623E0
4.159880583E0,-1.311871948E0,1.106049957E0,3.460354156E0,3.862435165E0
4.169821583E0,-1.308578796E0,8.770262146E-1,2.941682739E0,3.336922352E0
4.179762583E0,-1.314716034E0,8.714877319E-1,2.143692169E0,2.661462987E0
4.189703583E0,-1.237776031E0,9.355545044E-1,1.373693390E0,2.072289860E0
4.199644583E0,-1.105900269E0,1.072819061E0,8.303233337E-1,1.750255119E0
4.209586583E0,-7.830216980E-1,1.209784241E0,5.736071777E-1,1.551040323E0
4.219527583E0,-4.248165894E-1,1.176403656E0,5.156776428E-1,1.352892504E0
4.229468583E0,-1.035845947E-1,1.149309998E0,7.207511902E-1,1.360560736E0
4.239409583E0,3.671864319E-1,1.187480621E0,1.026864624E0,1.612261473E0
4.249350583E0,6.679110718E-1,1.142424316E0,1.308578796E0,1.861079521E0
4.259291583E0,5.863307190E-1,1.163530426E0,1.773811340E0,2.200907412E0
4.269232583E0,5.336402893E-1,1.268162842E0,2.347568207E0,2.721044916E0
4.279173583E0,2.712359619E-1,1.476230164E0,2.943778381E0,3.304338905E0
4.289114583E0,-2.529739380E-2,1.926194458E0,3.692521362E0,4.164802403E0
4.299055583E0,-5.358856201E-2,2.561922455E0,4.345613251E0,5.044865997E0
4.308996583E0,3.989204407E-1,3.567231903E0,4.946463776E0,6.111610659E0
4.318937583E0,1.386117554E0,5.058430939E0,5.790259094E0,7.812563332E0
4.328878583E0,2.764151917E0,6.568939819E0,6.620283051E0,9.727263430E0
4.338819583E0,3.630999298E0,7.471113739E0,7.381001129E0,1.111219484E1
4.348760583E0,3.350033569E0,7.699089661E0,8.494236145E0,1.194364912E1
4.358701583E0,2.324516144E0,8.132438507E0,1.056038956E1,1.353003174E1
4.368642583E0,1.847757568E0,9.317673798E0,1.329520248E1,1.634000190E1
4.378583583E0,1.854643250E0,9.937385101E0,1.650378021E1,1.935370986E1
4.388524583E0,1.658251648E0,9.355545044E0,1.957733871E1,2.176116295E1
4.398465583E0,1.766476593E0,8.740025024E0,2.115610565E1,2.295842511E1
4.408406583E0,2.417472839E0,9.067394257E0,2.065180435E1,2.268388936E1
4.418347583E0,3.144510956E0,1.012599289E1,1.860810425E1,2.141693780E1
4.428288583E0,3.806284790E0,1.093625793E1,1.625888947E1,1.996098765E1
4.438229583E0,4.601281586E0,1.131452133E1,1.466066299E1,1.908206552E1
4.448170583E0,5.457052002E0,1.159608582E1,1.382420242E1,1.885092028E1
4.458111583E0,5.789061584E0,1.144325363E1,1.339220078E1,1.854217704E1
4.468052583E0,5.352269897E0,1.087009552E1,1.302710999E1,1.779076626E1
4.477993583E0,4.101021881E0,1.000998413E1,1.274285110E1,1.671521514E1
4.487934583E0,2.398761749E0,9.231153717E0,1.272369095E1,1.590159012E1
4.497875583E0,6.691085815E-1,8.367000732E0,1.282128799E1,1.532448477E1
4.507816583E0,-4.670288086E-1,7.430997162E0,1.250679199E1,1.455533169E1
4.517757583E0,-1.160087585E0,6.605164490E0,1.168784500E1,1.347515202E1
4.527698583E0,-1.654509430E0,5.963748322E0,1.038330780E1,1.208787725E1
4.537639583E0,-1.823957062E0,5.365292816E0,8.672365723E0,1.035968694E1
4.547580583E0,-1.679357758E0,4.814138947E0,6.529571686E0,8.284412029E0
4.557521583E0,-1.533261566E0,4.157005463E0,4.547992401E0,6.349474020E0
4.567462583E0,-1.373992767E0,3.266806641E0,3.275488586E0,4.825837464E0
4.577403583E0,-1.183139648E0,2.289039917E0,2.800077209E0,3.805253677E0
4.587344583E0,-8.464897156E-1,1.525328064E0,2.822530518E0,3.318109260E0
4.597285583E0,-4.466711426E-1,1.014590149E0,2.866239624E0,3.073147875E0
4.607226583E0,-3.294648743E-1,5.643264771E-1,2.651136932E0,2.730483201E0
4.617167583E0,-2.745291138E-1,2.375559998E-1,2.258653107E0,2.287643535E0
4.627108583E0,-3.373983765E-1,1.365161133E-1,1.845512238E0,1.881060800E0
4.637049583E0,-6.602769470E-1,1.869612122E-1,1.245709534E0,1.422220934E0
4.646991583E0,-8.425978088E-1,4.825964355E-1,5.792953491E-1,1.130687175E0
4.656932583E0,-9.716294861E-1,8.701405334E-1,-2.281256104E-1,1.324103357E0
4.666873583E0,-1.055455170E0,1.236428833E0,-9.264234924E-1,1.871096567E0
4.676814583E0,-8.752299500E-1,1.520388336E0,-1.302740936E0,2.185118327E0
4.686755583E0,-7.934999084E-1,1.658401337E0,-1.260528717E0,2.229096172E0
4.696696583E0,-7.418572998E-1,1.791624298E0,-7.469467163E-1,2.078027737E0
4.706637583E0,-5.536985779E-1,1.740430756E0,1.050814819E-1,1.829405217E0
4.716578583E0,-2.282752991E-1,1.655407562E0,1.125509491E0,2.014759396E0
4.726519583E0,6.556365967E-2,1.623074799E0,2.142045593E0,2.688313545E0
4.736460583E0,3.911366272E-1,1.914668427E0,3.074905701E0,3.643348475E0
4.746401583E0,3.975732422E-1,2.497855682E0,4.103566589E0,4.820436313E0
4.756342583E0,1.815724182E-1,3.459605713E0,5.082979889E0,6.151302690E0
4.766283583E0,1.844165039E-1,4.646936646E0,6.115382996E0,7.682834036E0
4.776224583E0,4.351451111E-1,6.074967041E0,7.077133026E0,9.337043841E0
4.786165583E0,1.063089294E0,7.652087402E0,7.856562195E0,1.101862832E1
4.796106583E0,1.858984222E0,9.190288696E0,8.557853851E0,1.269464813E1
4.806046833E0,1.990710297E0,1.029514114E1,9.208251343E0,1.395509769E1
4.815987833E0,1.475930786E0,1.108744354E1,1.053928345E1,1.536835292E1
4.825928833E0,9.672885132E-1,1.185893921E1,1.297756302E1,1.760645416E1
4.835869833E0,9.883946228E-1,1.244182709E1,1.622730515E1,2.047196662E1
4.845810833E0,1.139879608E0,1.216789673E1,1.944216980E1,2.296421135E1
4.855751833E0,1.259331207E0,1.111154343E1,2.136671768E1,2.411615510E1
4.865692833E0,1.931433563E0,1.079076050E1,2.141551620E1,2.405816456E1
4.875633833E0,2.838846588E0,1.154579041E1,1.995440460E1,2.322805608E1
4.885574833E0,3.590134277E0,1.232911148E1,1.811757431E1,2.220681321E1
4.895515833E0,4.207151184E0,1.260738281E1,1.678055466E1,2.140638309E1
4.905456833E0,4.137845306E0,1.248179398E1,1.596430206E1,2.068274365E1
4.915397833E0,3.504662018E0,1.220232513E1,1.528291901E1,1.986824119E1
4.925338833E0,2.272424469E0,1.167272644E1,1.476290039E1,1.895678463E1
4.935279833E0,6.212081909E-1,1.096170502E1,1.437206314E1,1.808593585E1
4.945220833E0,-7.479945374E-1,1.024679169E1,1.388452698E1,1.727241515E1
4.955161833E0,-1.754202118E0,9.494905243E0,1.325867844E1,1.640192076E1
4.965102833E0,-2.242935791E0,8.881630554E0,1.250813919E1,1.550379529E1
4.975043833E0,-2.536026306E0,8.292755127E0,1.161898819E1,1.449834831E1
4.984984833E0,-2.863395538E0,7.603887634E0,1.045665527E1,1.324234800E1
4.994925833E0,-2.940036163E0,6.842121735E0,8.963510284E0,1.165345267E1
5.004866833E0,-2.710263977E0,5.981860657E0,7.239545288E0,9.774415774E0
5.014807833E0,-2.298919373E0,5.049748993E0,5.611081696E0,7.891085665E0
5.024748833E0,-1.802701263E0,4.106560364E0,4.316723328E0,6.224762658E0
5.034689833E0,-1.335073700E0,3.161425781E0,3.369642792E0,4.809524644E0
5.044630833E0,-1.007405090E0,2.264640656E0,2.622696075E0,3.608600424E0
5.054571833E0,-6.962022400E-1,1.523232422E0,2.096390533E0,2.683242039E0
5.064512833E0,-2.866539001E-1,1.047671356E0,1.772015076E0,2.078418427E0
5.074453833E0,6.586303711E-3,8.198451233E-1,1.436263275E0,1.653796118E0
5.084394833E0,7.768844604E-2,6.730004883E-1,9.825567627E-1,1.193475154E0
5.094335833E0,-1.541793823E-2,4.634362793E-1,2.511776733E-1,5.273529381E-1
5.104277833E0,-4.019142151E-1,3.308120728E-1,-6.030958557E-1,7.966782757E-1
5.114218833E0,-8.560697937E-1,5.667214966E-1,-1.490300903E0,1.809703160E0
5.124158833E0,-1.015039215E0,9.090596008E-1,-2.079924774E0,2.486519864E0
5.134100833E0,-7.000941467E-1,1.073268127E0,-2.245031433E0,2.584995633E0
5.144041833E0,-1.579216003E-1,1.012045441E0,-2.003733215E0,2.250360416E0
5.153982833E0,3.309617615E-1,7.906558228E-1,-1.293011169E0,1.551305967E0
5.163923833E0,5.968089294E-1,4.978646851E-1,-2.930905151E-1,8.306336093E-1
5.173864833E0,9.050180054E-1,2.689906311E-1,1.019080811E0,1.389222534E0
5.183805833E0,9.636959839E-1,1.984872437E-1,2.192490692E0,2.403148470E0
5.193746833E0,7.191046143E-1,4.028123474E-1,3.077151031E0,3.185628306E0
5.203687833E0,3.659889221E-1,8.698411560E-1,3.736978912E0,3.854294088E0
5.213628833E0,-3.900888062E-1,1.716181183E0,4.327051849E0,4.671276575E0
5.223569833E0,-9.145980835E-1,2.910996552E0,5.095553741E0,5.939280976E0
5.233510833E0,-9.090596008E-1,4.232598267E0,5.958509216E0,7.365127937E0
5.243451833E0,-2.565664673E-1,5.543871460E0,7.027586060E0,8.954736341E0
5.253392833E0,9.348060608E-1,6.728657684E0,8.533304901E0,1.090715312E1
5.263333833E0,2.144889679E0,7.749684448E0,1.080587906E1,1.346941658E1
5.273274833E0,2.689756622E0,8.650810547E0,1.314745972E1,1.596643388E1
5.283215833E0,2.243534546E0,9.053323517E0,1.527303955E1,1.789586128E1
5.293156833E0,1.200353851E0,9.350455627E0,1.742227020E1,1.980927482E1
5.303097833E0,9.059161377E-1,1.019739441E1,1.995635056E1,2.242907631E1
5.313038833E0,1.494192810E0,1.076187057E1,2.202160583E1,2.455609077E1
5.322979833E0,1.777553558E0,1.030487091E1,2.245435593E1,2.476990434E1
5.332920833E0,2.651436310E0,1.059451859E1,2.122556122E1,2.387045009E1
5.342861833E0,3.690725098E0,1.177720917E1,1.884057083E1,2.252312627E1
5.352802833E0,4.213737488E0,1.263178207E1,1.665855835E1,2.132662815E1
5.362743833E0,5.013674011E0,1.291813660E1,1.531659897E1,2.065462138E1
5.372684833E0,5.943989410E0,1.255753647E1,1.458117828E1,2.014034489E1
5.382625833E0,6.399192810E0,1.180759598E1,1.390638153E1,1.933278145E1
5.392566833E0,6.108347626E0,1.077968353E1,1.337543564E1,1.823227266E1
5.402507833E0,4.942272491E0,9.520801392E0,1.328966400E1,1.707884322E1
5.412448833E0,3.195554810E0,8.562943268E0,1.359143646E1,1.637872746E1
5.422389833E0,8.949888611E-1,7.915539551E0,1.398900970E1,1.609811057E1
5.432330833E0,-1.224753113E0,7.658074951E0,1.382884277E1,1.585506306E1
5.442271833E0,-2.715802460E0,7.471263428E0,1.271994873E1,1.499974853E1
5.452212833E0,-3.320245514E0,7.108268280E0,1.086814957E1,1.340403608E1
5.462153833E0,-3.216660919E0,6.457421722E0,8.404871979E0,1.107641981E1
5.472094833E0,-2.806214447E0,5.720504150E0,5.813311157E0,8.625172107E0
5.482035833E0,-2.296075287E0,4.743635559E0,4.022734680E0,6.629964883E0
5.491976833E0,-1.781146088E0,3.575764160E0,3.153192902E0,5.089321781E0
5.501917833E0,-1.277892609E0,2.516716461E0,3.052452393E0,4.157443550E0
5.511858833E0,-9.229806519E-1,1.739682312E0,3.467688904E0,3.987888434E0
5.521799833E0,-8.535250854E-1,1.159339142E0,3.935316467E0,4.190380414E0
5.531740833E0,-8.273295593E-1,6.381230164E-1,3.905378723E0,4.042729048E0
5.541681833E0,-8.093669128E-1,1.627116394E-1,3.308869171E0,3.410302783E0
5.551622833E0,-7.683522034E-1,-1.880090332E-1,2.281555481E0,2.414789415E0
5.561563833E0,-7.433541870E-1,-2.856060791E-1,1.000818787E0,1.278977921E0
5.571504833E0,-7.725434875E-1,-9.714797974E-2,-4.809498596E-1,9.151906564E-1
5.581445833E0,-5.418731689E-1,1.423539734E-1,-1.607207794E0,1.702059952E0
5.591386833E0,-1.133143616E-1,2.344125366E-1,-2.030826874E0,2.047448943E0
5.601327833E0,3.345542908E-1,1.432521057E-1,-1.764979706E0,1.802110180E0
5.611268833E0,9.069639587E-1,-4.999603271E-2,-1.045875092E0,1.385257353E0
5.621209833E0,1.439855804E0,-3.719764709E-1,1.775308228E-1,1.497687693E0
5.631150833E0,1.839524689E0,-6.502478027E-1,1.411265259E0,2.407974858E0
5.641091833E0,2.146236877E0,-7.530839539E-1,2.333347778E0,3.258524210E0
5.651032833E0,2.238894196E0,-6.265969849E-1,2.886148224E0,3.706092628E0
5.660973833E0,1.920356598E0,-9.894424438E-2,3.031046906E0,3.589541025E0
5.670914833E0,1.367705841E0,6.572831726E-1,3.079246674E0,3.432841463E0
5.680856833E0,9.958790588E-1,1.783840485E0,3.105591888E0,3.717332774E0
5.690797833E0,8.190966797E-1,3.309916992E0,3.461252289E0,4.858676494E0
5.700738833E0,9.614506531E-1,5.018314362E0,4.244573364E0,6.642610137E0
5.710679833E0,1.429527283E0,7.025640106E0,5.500910797E0,9.036768601E0
5.720620833E0,2.330803070E0,9.195827179E0,7.007677460E0,1.179421145E1
5.730561833E0,2.962938538E0,1.088401657E1,8.233777771E0,1.396552605E1
5.740502833E0,2.779420166E0,1.204979233E1,9.479936371E0,1.558177991E1
5.750443833E0,1.928439789E0,1.310764252E1,1.100810852E1,1.722520321E1
5.760384833E0,1.074166260E0,1.468281693E1,1.309252396E1,1.970160221E1
5.770325833E0,3.517684937E-1,1.612491806E1,1.520193741E1,2.216383596E1
5.780266833E0,-4.906796265E-1,1.604094269E1,1.655422531E1,2.305634369E1
5.790207833E0,-7.087760925E-1,1.554711960E1,1.704370743E1,2.308036512E1
5.800148833E0,-2.903961182E-1,1.575922852E1,1.700478836E1,2.318621229E1
5.810090458E0,7.244934082E-2,1.618703888E1,1.676738205E1,2.330602020E1
5.820031458E0,4.514611816E-1,1.602717133E1,1.634795425E1,2.289824548E1
5.829972458E0,1.370250549E0,1.546673676E1,1.546464111E1,2.191466763E1
5.839913458E0,2.626438293E0,1.468146973E1,1.382629807E1,2.033741010E1
5.849854458E0,3.686234436E0,1.340133179E1,1.162123352E1,1.811731455E1
5.859795458E0,4.195924530E0,1.182181641E1,9.607321472E0,1.580068833E1
5.869736458E0,3.964805145E0,1.031475037E1,8.107739868E0,1.370580901E1
5.879677458E0,2.821931763E0,8.787775726E0,7.275320892E0,1.175238679E1
5.889618458E0,1.079255676E0,7.626340942E0,7.186405792E0,1.053424403E1
5.899559458E0,-6.821315002E-1,6.892566833E0,7.181466064E0,9.977285992E0
5.909500458E0,-2.087259521E0,6.052663422E0,6.847061462E0,9.374093955E0
5.919441458E0,-2.925516357E0,5.109624481E0,6.246510315E0,8.584043302E0
5.929382458E0,-3.214565277E0,4.257596283E0,5.612129517E0,7.743161741E0
5.939323458E0,-3.016826477E0,3.447480927E0,4.990023193E0,6.773972114E0
5.949264458E0,-2.483635254E0,2.555485840E0,4.339925079E0,5.615505467E0
5.959205458E0,-1.866618347E0,1.656904449E0,3.739224243E0,4.495708437E0
5.969146458E0,-1.285975800E0,8.253836060E-1,3.392245789E0,3.720527294E0
5.979087458E0,-8.161029053E-1,1.627116394E-1,3.329675903E0,3.432089837E0
5.989028458E0,-4.243675232E-1,-3.294648743E-1,3.544329529E0,3.584816133E0
5.998969458E0,5.239105225E-3,-7.435038757E-1,3.783532104E0,3.855896867E0
6.008910458E0,3.604504395E-1,-1.071771240E0,3.791764984E0,3.956778969E0
6.018851458E0,4.945715332E-1,-1.168769531E0,3.760629730E0,3.968999772E0
6.028792458E0,3.957769775E-1,-9.897418213E-1,3.629951477E0,3.783222967E0
6.038733458E0,2.523751831E-1,-5.715115356E-1,3.353177032E0,3.410881833E0
6.048674458E0,-1.242416382E-2,-1.440005493E-1,3.029550018E0,3.032995851E0
6.058615458E0,-1.935475159E-1,3.143463135E-1,2.926713867E0,2.949903101E0
6.068556458E0,-1.041833496E-1,6.230044556E-1,2.981649628E0,3.047822702E0
6.078497458E0,9.145980835E-2,7.774832153E-1,3.128194885E0,3.224662507E0
6.088438458E0,5.185217285E-1,9.325607300E-1,3.577111359E0,3.732862169E0
6.098379458E0,1.036145325E0,1.082249451E0,4.211641846E0,4.470211186E0
6.108320458E0,1.132395172E0,1.275198212E0,4.724325714E0,5.022718662E0
6.118261458E0,1.107995911E0,1.651665344E0,5.249284058E0,5.613433572E0
6.128202458E0,9.256750488E-1,2.303410034E0,5.979615326E0,6.474439862E0
6.138143458E0,4.096980286E-1,3.266207886E0,6.766977997E0,7.525154991E0
6.148084458E0,-2.484832764E-2,4.411476288E0,7.496860199E0,8.698543172E0
6.158025458E0,-1.833686829E-1,5.766159210E0,7.834408264E0,9.729345762E0
6.167966458E0,-2.050735474E-2,7.396269379E0,7.635022888E0,1.063008917E1
6.177907458E0,2.555186462E-1,9.077124023E0,7.392676849E0,1.170944667E1
6.187848458E0,2.001338196E-1,1.023062531E1,7.346123657E0,1.259647889E1
6.197789458E0,-1.948947144E-1,1.067460205E1,7.878117371E0,1.326837768E1
6.207730458E0,-1.965412903E-1,1.075154205E1,9.441616058E0,1.431008032E1
6.217671458E0,6.033952332E-1,1.063927551E1,1.240141113E1,1.635094087E1
6.227612458E0,1.579066315E0,1.038016434E1,1.601100494E1,1.914663264E1
6.237553458E0,1.532662811E0,9.625433807E0,1.905387726E1,2.140206228E1
6.247494458E0,1.110091553E0,9.257199554E0,2.023746597E1,2.228190018E1
6.257435458E0,7.271878052E-1,9.877808990E0,1.943723007E1,2.181526588E1
6.267376458E0,4.411326599E-1,1.095242432E1,1.726300140E1,2.044899543E1
6.277317458E0,5.001100159E-1,1.174831924E1,1.451471649E1,1.868020637E1
6.287258458E0,5.161267090E-1,1.204455322E1,1.227821732E1,1.720733185E1
6.297199458E0,1.724414062E-1,1.178259796E1,1.131272507E1,1.633514919E1
6.307140458E0,-5.860313416E-1,1.126123215E1,1.177197006E1,1.630147421E1
6.317081458E0,-1.270258484E0,1.053943314E1,1.301154236E1,1.679266036E1
6.327022458E0,-1.783241730E0,9.355395355E0,1.445050003E1,1.730665550E1
6.336963458E0,-1.952090607E0,7.969726868E0,1.582194809E1,1.782305376E1
6.346904458E0,-1.712438965E0,6.624324646E0,1.658820465E1,1.794387522E1
6.356846458E0,-1.252146149E0,5.521118774E0,1.639884842E1,1.734856916E1
6.366787458E0,-9.770182800E-1,4.690496063E0,1.499806137E1,1.574475033E1
6.376728458E0,-1.206940155E0,4.356390839E0,1.291783722E1,1.368595499E1
6.386669458E0,-1.606609039E0,4.449497223E0,1.048180298E1,1.149988747E1
6.396610458E0,-2.310894470E0,4.674179993E0,7.813451843E0,9.393520190E0
6.406551458E0,-2.808010712E0,4.799619141E0,5.172643433E0,7.594570964E0
6.416492458E0,-2.589614868E0,4.526437225E0,3.069965973E0,6.051399028E0
6.426433458E0,-2.040856018E0,3.847299500E0,1.939367065E0,4.767384119E0
6.436374458E0,-1.427132263E0,3.044069824E0,1.639540558E0,3.740476017E0
6.446315458E0,-8.065228271E-1,2.241289215E0,1.579964447E0,2.858346387E0
6.456256458E0,-2.192939758E-1,1.526675262E0,1.550924835E0,2.187280286E0
6.466197458E0,3.038681030E-1,9.747729492E-1,1.543739777E0,1.850851324E0
6.476138458E0,5.941145325E-1,5.616320801E-1,1.434017944E0,1.650699893E0
6.486079458E0,7.967930603E-1,4.243675232E-1,1.079255676E0,1.407039371E0
6.496020458E0,8.345146179E-1,4.843927002E-1,4.965174866E-1,1.085163836E0
6.505961458E0,5.779481506E-1,7.143145752E-1,-2.326162720E-1,9.478289440E-1
6.515902458E0,2.409988403E-2,1.208287354E0,-7.515870667E-1,1.423173304E0
6.525843458E0,-7.994874573E-1,1.859133911E0,-8.020321655E-1,2.176881873E0
6.535784458E0,-1.237925720E0,2.447859650E0,-4.661306763E-1,2.782400899E0
6.545725458E0,-1.054557037E0,2.646047516E0,1.490899658E-1,2.852347423E0
6.555666458E0,-5.131329346E-1,2.373164978E0,1.183289337E0,2.700998163E0
6.565607458E0,1.413061523E-1,1.783840485E0,2.485581207E0,3.062706032E0
6.575548458E0,8.286767578E-1,1.199605408E0,3.614234161E0,3.897235799E0
6.585489458E0,1.412163391E0,9.744735718E-1,4.573140106E0,4.884405247E0
6.595430458E0,1.763183441E0,1.314117279E0,5.210065613E0,5.655130746E0
6.605371458E0,1.664089508E0,2.456391907E0,5.618416443E0,6.353712176E0
6.615312458E0,1.075962524E0,4.270170135E0,5.741011505E0,7.235417157E0
6.625253458E0,1.740879822E-1,6.687792664E0,5.799390106E0,8.853801610E0
6.635194458E0,-7.141648865E-1,9.198072510E0,5.728587341E0,1.085961704E1
6.645135458E0,-1.355131989E0,1.071861053E1,6.194418640E0,1.245374710E1
6.655076458E0,-1.249900818E0,1.073567505E1,8.225844269E0,1.358239613E1
6.665017458E0,-1.811233521E-1,9.824220428E0,1.223675354E1,1.569350980E1
6.674958458E0,1.507215729E0,9.157207489E0,1.726584549E1,1.960192768E1
6.684899458E0,2.198627930E0,8.479117584E0,2.129965714E1,2.303051875E1
6.694840458E0,1.679357758E0,7.941884766E0,2.304338104E1,2.443135661E1
6.704781458E0,9.934840393E-1,8.947643280E0,2.215976852E1,2.391866785E1
6.714722458E0,-3.058140564E-1,1.110869934E1,1.923485092E1,2.221432451E1
6.724663458E0,-1.512454834E0,1.342603043E1,1.597912125E1,2.092553771E1
6.734604458E0,-1.575773163E0,1.498728378E1,1.385578674E1,2.047155496E1
6.744545458E0,-4.775070190E-1,1.494956223E1,1.304941360E1,1.984954959E1
6.754486458E0,7.807763672E-1,1.380668884E1,1.343261673E1,1.927873079E1
6.764427458E0,1.326242065E0,1.247894989E1,1.466799774E1,1.930371120E1
6.774368458E0,1.286424866E0,1.141346558E1,1.616293900E1,1.982833030E1
6.784309458E0,8.942404175E-1,1.050350784E1,1.765802994E1,2.056524651E1
6.794250458E0,1.228944397E-1,9.575737152E0,1.821322540E1,2.057744942E1
6.804191000E0,-6.366261292E-1,8.804989929E0,1.731344650E1,1.943421134E1
6.814132000E0,-1.249152374E0,8.149353333E0,1.511182480E1,1.721451684E1
6.824073000E0,-1.729952545E0,7.668104095E0,1.234108658E1,1.463198463E1
6.834014000E0,-2.079326019E0,7.137457581E0,9.326954498E0,1.192723680E1
6.843955000E0,-2.070494385E0,6.493197327E0,6.236181793E0,9.237885141E0
6.853896000E0,-1.591939545E0,5.461243286E0,3.520529022E0,6.689811234E0
6.863837000E0,-1.056952057E0,4.064946899E0,1.775457916E0,4.559955236E0
6.873778000E0,-5.629792786E-1,2.605481873E0,1.185983734E0,2.917539867E0
6.883719000E0,-1.190025330E-1,1.353186035E0,1.434017944E0,1.975267454E0
6.893660000E0,3.100053406E-1,4.266128540E-1,1.928589478E0,1.999389710E0
6.903601000E0,6.734495544E-1,-2.158511353E-1,2.278262329E0,2.385498953E0
6.913542000E0,6.183641052E-1,-6.725514221E-1,2.108964386E0,2.298353838E0
6.923483000E0,5.770500183E-1,-8.876541138E-1,1.460063782E0,1.803525103E0
6.933424000E0,4.549040222E-1,-8.912466431E-1,3.418890381E-1,1.057424400E0
6.943365000E0,8.457412720E-2,-8.171507263E-1,-9.400451660E-1,1.248428214E0
6.953306000E0,-1.323248291E-1,-4.881349182E-1,-2.115550690E0,2.175164426E0
6.963247000E0,-3.535647583E-1,1.077758789E-2,-2.908451843E0,2.929883329E0
6.973188000E0,-3.938310242E-1,3.071612549E-1,-3.234324188E0,3.272660060E0
6.983129000E0,-3.788621521E-1,3.044668579E-1,-2.997067566E0,3.036223080E0
6.993070000E0,-5.459147644E-1,2.598596191E-1,-2.032623138E0,2.120638294E0
7.003011000E0,-4.628375244E-1,2.601589966E-1,-8.045768738E-1,9.639736632E-1
7.012952000E0,-1.197509766E-3,1.133143616E-1,3.294648743E-1,3.484087857E-1
7.022893000E0,5.411247253E-1,4.206253052E-2,1.130149841E0,1.253724008E0
7.032834000E0,8.993298340E-1,2.139051819E-1,1.510957947E0,1.771311236E0
7.042775000E0,7.761360168E-1,7.292834473E-1,1.625320129E0,1.943169315E0
7.052716000E0,2.197430420E-1,1.717977448E0,1.983525238E0,2.633269049E0
7.062657000E0,-2.293231201E-1,3.222349091E0,2.781665497E0,4.263072330E0
7.072598000E0,-4.249662781E-1,5.234165497E0,3.868854675E0,6.522662132E0
7.082539000E0,-1.131646729E-1,7.680378571E0,4.795577545E0,9.055307020E0
7.092480000E0,6.747967529E-1,9.823621674E0,5.538033600E0,1.129728771E1
7.102421000E0,1.052012329E0,1.084779190E1,6.432573395E0,1.265540673E1
7.112362000E0,7.235952759E-1,1.078746735E1,7.882308655E0,1.337997876E1
7.122303000E0,3.990701294E-1,1.082414108E1,1.062999481E1,1.517623395E1
7.132244000E0,5.516029358E-1,1.181523010E1,1.423285263E1,1.850616174E1
7.142185000E0,-5.044509888E-2,1.270004013E1,1.800470901E1,2.203322742E1
7.152126000E0,-1.098116455E0,1.285826111E1,2.054702225E1,2.426357067E1
7.162067000E0,-1.340163116E0,1.283446060E1,2.120445511E1,2.482233536E1
7.172008000E0,-9.990225220E-1,1.339699081E1,2.018552399E1,2.424732537E1
7.181949000E0,-3.239263916E-1,1.410696442E1,1.824480972E1,2.306478821E1
7.191890000E0,2.915936279E-1,1.445828384E1,1.642294830E1,2.188241827E1
7.201831000E0,8.164022827E-1,1.443448334E1,1.500105515E1,2.083392612E1
7.211772000E0,9.876461792E-1,1.413585434E1,1.415815796E1,2.003125707E1
7.221713000E0,9.157955933E-1,1.339055420E1,1.419782547E1,1.953775502E1
7.231654000E0,6.587800598E-1,1.219109848E1,1.510224472E1,1.941995543E1
7.241595000E0,2.236349487E-1,1.074570419E1,1.619003265E1,1.943289295E1
7.251536000E0,-3.365002441E-1,9.258846130E0,1.724114685E1,1.957285387E1
7.261477000E0,-8.942404175E-1,7.803871765E0,1.753498581E1,1.921394826E1
7.271418000E0,-1.276994476E0,6.732549591E0,1.646845367E1,1.783726171E1
7.281359000E0,-1.714983673E0,6.070326691E0,1.434975952E1,1.567500027E1
7.291300000E0,-1.964514771E0,5.655539246E0,1.166045197E1,1.310765358E1
7.301241000E0,-1.757794647E0,5.261259155E0,8.700357513E0,1.031828042E1
7.311182000E0,-1.366358643E0,4.619393921E0,5.913452911E0,7.627231573E0
7.321123000E0,-8.044271851E-1,3.948788452E0,3.662882996E0,5.445800692E0
7.331064000E0,-2.999761963E-1,3.254532166E0,2.165995789E0,3.920905902E0
7.341006000E0,-2.320175171E-2,2.504441986E0,1.583856354E0,2.963337465E0
7.350947000E0,1.154100037E-1,1.878144379E0,1.540895691E0,2.432098951E0
7.360888000E0,2.284249878E-1,1.370100861E0,1.668430481E0,2.170947861E0
7.370829000E0,2.718347168E-1,9.304650879E-1,1.590742035E0,1.862825707E0
7.380770000E0,2.707868958E-1,5.646258545E-1,1.180894318E0,1.336652269E0
7.390711000E0,1.683998108E-1,3.809577942E-1,5.195695496E-1,6.659127976E-1
7.400652000E0,-9.190887451E-2,4.043092346E-1,-2.323168945E-1,4.752729089E-1
7.410593000E0,-3.013233948E-1,5.306465149E-1,-1.032552795E0,1.199394342E0
7.420534000E0,-4.447251892E-1,6.975494385E-1,-1.763782196E0,1.948148698E0
7.430475000E0,-3.115022278E-1,8.336164856E-1,-2.400857391E0,2.560481653E0
7.440416000E0,-1.089733887E-1,7.987390137E-1,-2.729723511E0,2.846269428E0
7.450357000E0,5.358856201E-2,6.798861694E-1,-2.610421600E0,2.698039634E0
7.460298000E0,2.094145203E-1,5.748046875E-1,-2.052831116E0,2.142048193E0
7.470239000E0,4.284091187E-1,3.351530457E-1,-9.629475403E-1,1.105952034E0
7.480180000E0,8.933422852E-1,6.990463257E-2,3.869453430E-1,9.760500984E-1
7.490121000E0,1.307980042E0,-1.088237000E-1,1.868863678E0,2.283704410E0
7.500062000E0,1.483714600E0,1.076261902E-1,2.882256317E0,3.243515668E0
7.510003000E0,1.029559021E0,8.114625549E-1,3.389102325E0,3.633796613E0
7.519944000E0,3.315605164E-1,1.967358856E0,4.033961334E0,4.500364129E0
7.529885000E0,-5.493576050E-2,3.513194275E0,4.590503998E0,5.780854513E0
7.539826000E0,-6.628216553E-1,5.214705963E0,5.055137787E0,7.292935546E0
7.549767000E0,-1.188827820E0,7.331753540E0,5.529800720E0,9.259946952E0
7.559708000E0,-8.833131409E-1,9.447902985E0,6.377038879E0,1.143283595E1
7.569649000E0,-5.266049194E-1,1.047925827E1,7.878716125E0,1.312121696E1
7.579590000E0,-5.177732849E-1,1.051593201E1,1.059691360E1,1.493812214E1
7.589531000E0,-5.819897461E-1,1.054586975E1,1.459030930E1,1.801197397E1
7.599472000E0,-4.474195862E-1,1.096245346E1,1.897499130E1,2.191861914E1
7.609413000E0,-7.168592834E-1,1.107486969E1,2.270703049E1,2.527401550E1
7.619354000E0,-1.178349609E0,1.098580490E1,2.429867065E1,2.669272958E1
7.629295000E0,-1.451531525E0,1.147753235E1,2.342897919E1,2.612963372E1
7.639236000E0,-1.400637360E0,1.256861343E1,2.128693359E1,2.476015692E1
7.649177000E0,-1.133892059E0,1.366643051E1,1.922078018E1,2.361134102E1
7.659118000E0,-7.438032532E-1,1.414109344E1,1.783511169E1,2.277311960E1
7.669059000E0,-6.256988525E-2,1.408331360E1,1.713277222E1,2.217826686E1
7.679000000E0,4.363426208E-1,1.359936996E1,1.673400146E1,2.156756971E1
7.688941000E0,5.051994324E-1,1.262579453E1,1.632894379E1,2.064704141E1
7.698882000E0,2.885998535E-1,1.119312378E1,1.625110565E1,1.973493716E1
7.708823000E0,2.288740540E-1,9.624685364E0,1.721884323E1,1.972753188E1
7.718764000E0,8.113128662E-2,8.026458893E0,1.859687759E1,2.025523342E1
7.728705000E0,-9.131011963E-2,6.576573944E0,1.900043839E1,2.010662381E1
7.738646000E0,-6.147715759E-1,5.499264221E0,1.791040512E1,1.874573185E1
7.748587000E0,-1.229842529E0,5.084925842E0,1.552736069E1,1.638499049E1
7.758528000E0,-1.698368225E0,5.109923859E0,1.245919098E1,1.357303269E1
7.768469000E0,-2.065704346E0,5.003195801E0,9.214089203E0,1.068637181E1
7.778410000E0,-2.056872711E0,4.742737427E0,6.112987976E0,8.005804497E0
7.788351000E0,-1.630110168E0,4.262536011E0,3.644022217E0,5.839980336E0
7.798292000E0,-1.056952057E0,3.419489136E0,2.142344971E0,4.171294232E0
7.808233500E0,-5.063969421E-1,2.457739105E0,1.523382111E0,2.935577018E0
7.818174500E0,-1.660047913E-1,1.567091217E0,1.445843353E0,2.138643373E0
7.828115500E0,1.124162292E-1,8.999285889E-1,1.557511139E0,1.802317902E0
7.838056500E0,1.701960754E-1,4.522096252E-1,1.853445740E0,1.915390655E0
7.847997500E0,3.143463135E-2,3.730242920E-1,1.843117218E0,1.880748877E0
7.857938500E0,-2.336640930E-1,5.766009521E-1,1.425635376E0,1.555475423E0
7.867879500E0,-7.608677673E-1,9.081614685E-1,6.918612671E-1,1.371987254E0
7.877820500E0,-1.288670197E0,1.411714325E0,-1.670526123E-1,1.918727387E0
7.887761500E0,-1.803300018E0,1.963616638E0,-8.726852417E-1,2.805220275E0
7.897702500E0,-1.942061462E0,2.437830505E0,-1.270108795E0,3.365679225E0
7.907643500E0,-1.648970947E0,2.650089111E0,-1.369053040E0,3.408281636E0
7.917584500E0,-1.271755371E0,2.632425842E0,-1.081501007E0,3.117157674E0
7.927525500E0,-7.737409973E-1,2.372117157E0,-4.900808716E-1,2.542792598E0
7.937466500E0,-1.936972046E-1,1.879790955E0,1.736389160E-1,1.897704696E0
7.947407500E0,4.483177185E-1,1.410516815E0,8.749305725E-1,1.719316716E0
7.957348500E0,9.348060608E-1,1.021475830E0,1.841620331E0,2.304092161E0
7.967289500E0,1.171164551E0,7.920030212E-1,2.737657013E0,3.081178526E0
7.977230500E0,8.253836060E-1,9.032217407E-1,3.470832367E0,3.680182730E0
7.987171500E0,3.207829285E-1,1.318009186E0,4.050576782E0,4.271676740E0
7.997112500E0,-4.773573303E-1,1.904788971E0,4.376598816E0,4.796947805E0
8.007053500E0,-1.188827820E0,3.020718384E0,4.727169800E0,5.734473424E0
8.016994500E0,-1.056652679E0,4.394112396E0,5.156177673E0,6.856450017E0
8.026935500E0,-4.302053833E-1,5.534740448E0,5.627098389E0,7.904597698E0
8.036876500E0,9.110055542E-1,6.649322662E0,6.418802032E0,9.286788601E0
8.046817500E0,2.528841248E0,7.325316925E0,7.687114563E0,1.091544944E1
8.056758500E0,3.507805481E0,7.937543793E0,9.286388855E0,1.271008728E1
8.066699500E0,3.136727142E0,9.096134491E0,1.127215942E1,1.482026646E1
8.076640500E0,1.630708923E0,1.038211029E1,1.371762405E1,1.728064337E1
8.086581500E0,4.805007935E-2,1.182525925E1,1.690524536E1,2.063071462E1
8.096522500E0,-8.140072632E-1,1.246592697E1,1.984468277E1,2.344937904E1
8.106463500E0,-1.236428833E-1,1.162138321E1,2.146596130E1,2.441023003E1
8.116404500E0,1.718127136E0,1.089494385E1,2.176623688E1,2.440124649E1
8.126345500E0,3.492537231E0,1.117815491E1,2.078263229E1,2.385512038E1
8.136286500E0,4.381089478E0,1.155566986E1,1.951252350E1,2.309688343E1
8.146227500E0,4.628674622E0,1.179053146E1,1.887050858E1,2.272745817E1
8.156168500E0,4.525988159E0,1.193602890E1,1.865136429E1,2.260147660E1
8.166109500E0,4.231550446E0,1.161045593E1,1.846919312E1,2.222205662E1
8.176050500E0,3.693569183E0,1.074750046E1,1.815110458E1,2.141527065E1
8.185991500E0,2.816542969E0,9.673334198E0,1.772778488E1,2.039070047E1
8.195932500E0,1.684596863E0,8.378526764E0,1.726105545E1,1.926088296E1
8.205873500E0,5.352868652E-1,7.057823181E0,1.658580963E1,1.803298315E1
8.215814500E0,-5.272036743E-1,6.262227631E0,1.540102341E1,1.663384984E1
8.225755500E0,-1.643282776E0,5.826633453E0,1.365131195E1,1.493346422E1
8.235696500E0,-2.639461212E0,5.623056793E0,1.114252899E1,1.275701672E1
8.245637500E0,-3.232078857E0,5.437592468E0,7.931705933E0,1.014523063E1
8.255578500E0,-3.349135437E0,4.952002258E0,4.687502289E0,7.596822510E0
8.265519500E0,-2.803220673E0,4.270020447E0,1.944306793E0,5.465477990E0
8.275460500E0,-2.113005981E0,3.332819366E0,2.996768188E-1,3.957560537E0
8.285401500E0,-1.330732727E0,2.271825714E0,-2.498304749E-1,2.644703562E0
8.295342500E0,-5.013075256E-1,1.375040588E0,-3.454815674E-1,1.503796319E0
8.305283500E0,1.155596924E-1,5.721102905E-1,-4.337979126E-1,7.272172000E-1
8.315224500E0,5.062472534E-1,-1.649569702E-1,-6.732998657E-1,8.583879035E-1
8.325165500E0,9.789642334E-1,-5.971083069E-1,-1.027613068E0,1.539772034E0
8.335106500E0,1.427880707E0,-8.026309204E-1,-1.324296112E0,2.106376011E0
8.345047500E0,1.635349274E0,-8.469387817E-1,-1.651216278E0,2.473497068E0
8.354988500E0,1.188977509E0,-6.867718506E-1,-2.164947968E0,2.563654187E0
8.364929500E0,6.661148071E-1,-3.632945251E-1,-2.701282654E0,2.805818922E0
8.374870500E0,3.263214111E-1,-8.412506104E-2,-2.901715851E0,2.921218507E0
8.384811500E0,1.782792664E-1,1.197509766E-1,-2.794838104E0,2.803077563E0
8.394752500E0,2.457888794E-1,1.359173584E-1,-2.237846375E0,2.255402868E0
8.404693500E0,4.580474854E-1,3.323089600E-2,-1.359622650E0,1.435090778E0
8.414634500E0,7.870632935E-1,-1.896556091E-1,-2.234852600E-1,8.398711445E-1
8.424575500E0,1.298399963E0,-4.439767456E-1,1.050365753E0,1.728070031E0
8.434516500E0,1.751956787E0,-6.489006042E-1,1.953288116E0,2.702916766E0
8.444457500E0,1.832788696E0,-6.156697083E-1,2.590513000E0,3.232479111E0
8.454398500E0,1.331930237E0,-1.959425354E-1,3.001408539E0,3.289511339E0
8.464339500E0,3.562591553E-1,5.298980713E-1,3.177592163E0,3.241111616E0
8.474280500E0,-8.303233337E-1,1.651066589E0,3.658542023E0,4.098827571E0
8.484221500E0,-1.446891174E0,3.115920410E0,4.704716492E0,5.825530992E0
8.494162500E0,-1.615290985E0,4.468657379E0,5.828280029E0,7.519768071E0
8.504103500E0,-1.170116730E0,5.714965668E0,6.871011658E0,9.013368235E0
8.514044500E0,2.359094238E-1,7.027136993E0,8.162675629E0,1.077337371E1
8.523985500E0,1.712139587E0,8.562793579E0,9.170829163E0,1.266321300E1
8.533926500E0,2.416574707E0,1.010503647E1,9.898316345E0,1.435020076E1
8.543867500E0,1.837728424E0,1.143008102E1,1.121078705E1,1.611538843E1
8.553808500E0,-4.400848389E-2,1.273072632E1,1.320299423E1,1.834100286E1
8.563749500E0,-1.762734375E0,1.431039139E1,1.610081818E1,2.161321078E1
8.573690500E0,-2.425106964E0,1.518262756E1,1.942091400E1,2.477024877E1
8.583631500E0,-2.043251038E0,1.433883224E1,2.189945984E1,2.625572940E1
8.593572500E0,-3.468287659E-1,1.308608734E1,2.255419830E1,2.607791850E1
8.603513500E0,1.617835693E0,1.304043228E1,2.140997772E1,2.512085613E1
8.613454500E0,2.619402924E0,1.356119934E1,1.973810440E1,2.409066551E1
8.623395500E0,3.288361816E0,1.354817642E1,1.838102646E1,2.307007892E1
8.633336500E0,3.943549347E0,1.320149734E1,1.712573685E1,2.198003585E1
8.643277500E0,4.111949158E0,1.271291336E1,1.576551544E1,2.066585999E1
8.653218500E0,3.737727356E0,1.193288544E1,1.478864685E1,1.936668367E1
8.663159500E0,3.049308929E0,1.083237396E1,1.457833420E1,1.841647194E1
8.673100500E0,1.894759827E0,9.484576721E0,1.493609024E1,1.779421541E1
8.683041500E0,9.970765686E-1,8.198301544E0,1.518382507E1,1.728452643E1
8.692982500E0,6.867718506E-1,6.965614929E0,1.508458145E1,1.662937294E1
8.702923500E0,2.935395813E-1,6.137836304E0,1.446711548E1,1.571803519E1
8.712864500E0,-6.483018494E-1,5.698799286E0,1.328936462E1,1.447424681E1
8.722805500E0,-1.981878662E0,5.478158112E0,1.179352524E1,1.315390805E1
8.732746500E0,-2.566413116E0,5.256918182E0,9.974058838E0,1.156302360E1
8.742687500E0,-2.383942566E0,4.697980499E0,7.908653870E0,9.502684303E0
8.752628500E0,-1.757794647E0,3.641028442E0,6.001469879E0,7.236336839E0
8.762569500E0,-9.187893677E-1,2.519560547E0,4.569397888E0,5.298278618E0
8.772510500E0,-2.787203979E-1,1.567989349E0,3.869004364E0,4.183953923E0
8.782451500E0,2.374063110E-1,9.789642334E-1,3.477268982E0,3.620239260E0
8.792392500E0,6.990463257E-1,7.086264038E-1,3.241209869E0,3.390613302E0
8.802333500E0,8.765771484E-1,6.268963623E-1,3.027154999E0,3.213262195E0
8.812274208E0,7.890092468E-1,7.310797119E-1,2.579885101E0,2.795142263E0
8.822215208E0,5.674699402E-1,1.023721161E0,1.837129669E0,2.178318748E0
8.832156208E0,6.960525513E-2,1.350940704E0,8.268804932E-1,1.585439065E0
8.842097208E0,-6.722520447E-1,1.750609589E0,-1.697470093E-1,1.882915503E0
8.852038208E0,-1.359173584E0,2.287692719E0,-7.620652771E-1,2.767965732E0
8.861979208E0,-1.641037445E0,2.743794250E0,-9.650431824E-1,3.339568704E0
8.871920208E0,-1.320853271E0,2.918780365E0,-7.533833313E-1,3.291127258E0
8.881861208E0,-6.432124329E-1,2.810555420E0,-2.832110596E-1,2.897093804E0
8.891802208E0,5.987548828E-2,2.406844940E0,5.403762817E-1,2.467487420E0
8.901743208E0,9.309141541E-1,1.909129944E0,1.815574493E0,2.794224230E0
8.911684208E0,1.670077057E0,1.568887482E0,2.935844879E0,3.724211388E0
8.921625208E0,2.054777069E0,1.522184601E0,3.700454865E0,4.498057466E0
8.931566208E0,2.026485901E0,1.732946320E0,4.195176086E0,4.970840014E0
8.941507208E0,1.560504913E0,2.158511353E0,4.359833679E0,5.109060242E0
8.951448208E0,5.625302124E-1,2.897674255E0,4.153562622E0,5.095590131E0
8.961389208E0,-2.915936279E-1,3.927981720E0,4.116888885E0,5.697617163E0
8.971330208E0,-6.403683472E-1,4.922962646E0,4.230203247E0,6.522288889E0
8.981271208E0,-1.794767761E-1,5.828429718E0,4.641248474E0,7.452784197E0
8.991212208E0,1.105900269E0,6.421945496E0,5.667813721E0,8.636464075E0
9.001153208E0,2.374512177E0,6.709647217E0,6.859186249E0,9.884640097E0
9.011094208E0,3.507655792E0,7.118147736E0,7.249275055E0,1.074819358E1
9.021035208E0,3.104993134E0,7.906558228E0,7.360793152E0,1.123992532E1
9.030976208E0,1.128054199E0,9.534572754E0,8.177644501E0,1.261167925E1
9.040917208E0,-7.670050049E-1,1.178035263E1,1.014425491E1,1.556505421E1
9.050858208E0,-1.487307129E0,1.274868896E1,1.263043488E1,1.800747173E1
9.060799208E0,-1.749262390E0,1.149669250E1,1.509071869E1,1.905160487E1
9.070740208E0,-1.321452026E0,1.028271698E1,1.677082489E1,1.971651773E1
9.080681208E0,-2.474354553E-1,9.975555725E0,1.671858353E1,1.947007888E1
9.090622208E0,3.818559265E-1,1.011177246E1,1.543425430E1,1.845562142E1
9.100563208E0,4.475692749E-1,1.057984909E1,1.407538010E1,1.761391069E1
9.110504208E0,5.029541016E-2,1.108744354E1,1.330148941E1,1.731656878E1
9.120445208E0,-4.643344116E-1,1.172182434E1,1.325104431E1,1.769765373E1
9.130386208E0,-6.258485413E-1,1.203961349E1,1.350506607E1,1.810333641E1
9.140327208E0,-6.568341064E-1,1.163410675E1,1.346240479E1,1.780506146E1
9.150268208E0,-7.451504517E-1,1.083147583E1,1.328487396E1,1.715703920E1
9.160209208E0,-1.061143341E0,9.816586304E0,1.339250015E1,1.663882364E1
9.170150208E0,-1.708846436E0,8.892707520E0,1.362691269E1,1.636133102E1
9.180091208E0,-2.281106415E0,7.945626984E0,1.351629272E1,1.584381910E1
9.190032208E0,-2.596051483E0,6.996450806E0,1.290436523E1,1.490679205E1
9.199973208E0,-2.800675964E0,6.126010895E0,1.184681442E1,1.362786877E1
9.209914208E0,-2.702480164E0,5.367837524E0,1.036759048E1,1.198348911E1
9.219855208E0,-2.451152802E0,4.683161316E0,8.512049103E0,1.001973702E1
9.229796208E0,-2.127376099E0,4.196972351E0,6.212680664E0,7.793439999E0
9.239737208E0,-1.499431915E0,3.499871979E0,4.031266937E0,5.545134178E0
9.249678208E0,-9.289682007E-1,2.572849731E0,2.953657837E0,4.025746176E0
9.259619208E0,-4.099974060E-1,1.774859161E0,3.060236206E0,3.561357684E0
9.269560208E0,-2.933898926E-2,1.161285095E0,3.639082489E0,3.819995446E0
9.279501208E0,7.574249268E-2,7.024891663E-1,4.095333710E0,4.155837599E0
9.289442208E0,8.292755127E-2,3.695814514E-1,4.233047333E0,4.249959664E0
9.299383208E0,8.427474976E-2,1.550775146E-1,4.127067719E0,4.130840014E0
9.309324208E0,3.532653809E-2,3.338058472E-2,3.704346771E0,3.704665603E0
9.319265208E0,-1.751358032E-1,1.691482544E-1,3.028502197E0,3.038274056E0
9.329206208E0,-5.108876038E-1,4.870870972E-1,2.040406952E0,2.159055468E0
9.339147208E0,-6.954537964E-1,8.387059021E-1,1.174906769E0,1.602338756E0
9.349088208E0,-8.198451233E-1,1.089135132E0,8.834628296E-1,1.624459274E0
9.359029208E0,-7.511380005E-1,1.240320740E0,1.056652679E0,1.794190268E0
9.368970208E0,-5.553451538E-1,1.193318481E0,1.601819000E0,2.073220043E0
9.378911208E0,-3.872447205E-1,1.133442993E0,2.335293732E0,2.624547257E0
9.388852208E0,-2.761756897E-1,1.036295013E0,3.289259949E0,3.459683711E0
9.398793208E0,-3.074606323E-1,1.020727386E0,4.373904419E0,4.501939172E0
9.408734208E0,-4.312532043E-1,1.190773773E0,5.338947601E0,5.487101511E0
9.418675208E0,-7.970924377E-1,1.675166473E0,5.970484314E0,6.252057422E0
9.428616208E0,-1.107846222E0,2.436183929E0,6.088588715E0,6.650806562E0
9.438557208E0,-1.355730743E0,3.297193451E0,6.197113037E0,7.149384624E0
9.448498208E0,-1.234931946E0,4.477489014E0,6.368506622E0,7.882311931E0
9.458439208E0,-7.337741089E-1,5.799090729E0,6.316414948E0,8.606101063E0
9.468380208E0,-3.924838257E-1,6.958429871E0,6.182892609E0,9.316756454E0
9.478321208E0,-8.217910767E-2,8.140072632E0,6.762487335E0,1.058294717E1
9.488262208E0,-1.884580994E-1,9.053922272E0,8.192613373E0,1.221179507E1
9.498203208E0,-5.611830139E-1,9.611662445E0,1.029663803E1,1.409679879E1
9.508144208E0,-6.557862854E-1,1.033675461E1,1.338845856E1,1.692717856E1
9.518085208E0,-6.855743408E-1,1.092682755E1,1.705059311E1,2.026297850E1
9.528026208E0,-8.126600647E-1,1.057775345E1,1.980546432E1,2.246788155E1
9.537967208E0,-7.909552002E-1,1.010458740E1,2.069820786E1,2.304656385E1
9.547908208E0,-4.882846069E-1,1.055080948E1,1.953916809E1,2.221119295E1
9.557849208E0,-2.615061951E-1,1.163904648E1,1.693757812E1,2.055279400E1
9.567790208E0,-1.808239746E-1,1.251801865E1,1.448956879E1,1.914891881E1
9.577731208E0,-1.342707825E-1,1.320943085E1,1.324685303E1,1.870791830E1
9.587672208E0,1.155596924E-1,1.347542770E1,1.286754181E1,1.863260953E1
9.597613208E0,1.848655701E-1,1.269794449E1,1.268417313E1,1.794882217E1
9.607554208E0,-1.040336609E-1,1.146630569E1,1.311138474E1,1.741824902E1
9.617495208E0,-3.995191956E-1,1.011566437E1,1.381552048E1,1.712760600E1
9.627436208E0,-7.911048889E-1,8.729247437E0,1.453193069E1,1.697063987E1
9.637377208E0,-1.036744080E0,7.324867859E0,1.503204071E1,1.675382868E1
9.647318208E0,-1.106349335E0,6.099815369E0,1.494941254E1,1.618384045E1
9.657259208E0,-1.124611359E0,5.320685577E0,1.389126297E1,1.491782935E1
9.667200208E0,-9.934840393E-1,4.881498871E0,1.200832855E1,1.300061523E1
9.677141208E0,-1.042282562E0,4.430935822E0,9.505533142E0,1.053919852E1
9.687082208E0,-8.428971863E-1,4.035009155E0,6.710545349E0,7.875480521E0
9.697023208E0,-3.052153015E-1,3.592229919E0,4.161496124E0,5.505935176E0
9.706964208E0,1.916015625E-1,2.972518616E0,2.162403259E0,3.680837668E0
9.716905208E0,5.040019226E-1,2.238295441E0,1.173709259E0,2.577125888E0
9.726846208E0,7.277865601E-1,1.657203827E0,1.001567230E0,2.068606951E0
9.736787208E0,8.744815063E-1,1.340911560E0,1.246158600E0,2.028712146E0
9.746728208E0,7.997868347E-1,1.175056458E0,1.495989075E0,2.063589099E0
9.756669208E0,6.556365967E-1,1.140628052E0,1.692081299E0,2.143369035E0
9.766610208E0,2.932402039E-1,1.210083618E0,1.767823792E0,2.162288866E0
9.776551208E0,-6.039939880E-1,1.367556152E0,1.541195068E0,2.147161104E0
9.786492208E0,-1.281634827E0,1.750160522E0,1.013841705E0,2.394477957E0
9.796433208E0,-1.747765503E0,2.170037384E0,3.863465881E-1,2.813007321E0
9.806374583E0,-1.982627106E0,2.513722687E0,-3.504212952E-1,3.220622156E0
9.816315583E0,-1.718426514E0,2.647394714E0,-7.833210754E-1,3.251965615E0
9.826256583E0,-1.309925995E0,2.454296265E0,-8.765771484E-1,2.916824260E0
9.836197583E0,-7.774832153E-1,2.137105865E0,-6.083349609E-1,2.354097079E0
9.846138583E0,-3.484753418E-1,1.771865387E0,9.520202637E-2,1.808315636E0
9.856079583E0,4.430786133E-2,1.401535492E0,9.767189026E-1,1.708872358E0
9.866020583E0,5.203179932E-1,1.234632568E0,1.699865112E0,2.164391322E0
9.875961583E0,8.563691711E-1,1.175355835E0,2.417921906E0,2.821555570E0
9.885902583E0,5.932164001E-1,1.381477203E0,3.127745819E0,3.470328352E0
9.895843583E0,1.754351807E-1,1.895208893E0,4.051474915E0,4.476275598E0
9.905784583E0,-2.874023438E-2,2.379751282E0,5.031786346E0,5.566229963E0
9.915725583E0,-6.765930176E-2,3.029550018E0,5.710475006E0,6.464694571E0
9.925666583E0,4.219725037E-1,3.762575684E0,5.915698242E0,7.023569054E0
9.935607583E0,1.312620392E0,4.365372162E0,5.390739899E0,7.059711259E0
9.945548583E0,2.181862793E0,4.929998016E0,4.018992462E0,6.724411208E0
9.955489583E0,1.808090057E0,5.510640564E0,2.330354004E0,6.250351899E0
9.965430583E0,7.319778442E-1,6.671925659E0,2.119891663E0,7.038772921E0
9.975371583E0,-1.830693054E-1,8.430468750E0,4.242328033E0,9.439473760E0
9.985312583E0,-1.283281403E0,9.837093658E0,9.028624878E0,1.341384695E1
9.995253583E0,-1.753303986E0,1.015667908E1,1.523052795E1,1.839024705E1
1.000519458E1,-1.572779388E0,9.293274536E0,2.026800247E1,2.235241622E1
1.001513558E1,-5.959107971E-1,8.284222870E0,2.243953674E1,2.392731217E1
1.002507658E1,5.749543762E-1,8.022866364E0,2.221709930E1,2.362829784E1
1.003501758E1,8.646020508E-1,9.203461304E0,2.029823959E1,2.230403029E1
1.004495858E1,4.026626587E-2,1.124311981E1,1.870674911E1,2.182548572E1
1.005489958E1,-1.458716583E0,1.298340088E1,1.857457397E1,2.270927896E1
1.006484058E1,-2.508333893E0,1.420321426E1,1.960069016E1,2.433536704E1
1.007478158E1,-2.055974579E0,1.405083115E1,2.039404037E1,2.485095109E1
1.008472258E1,-1.134490814E0,1.238734039E1,2.022294617E1,2.374238453E1
1.009466358E1,-2.987786865E-1,1.071112610E1,2.032742889E1,2.297872617E1
1.010460458E1,2.993774414E-3,9.422156525E0,2.084954315E1,2.287969607E1
1.011454558E1,-5.330415344E-1,8.270750885E0,2.072874435E1,2.232420874E1
1.012448658E1,-1.117276611E0,7.643854523E0,1.985022125E1,2.130042494E1
1.013442758E1,-1.364712067E0,7.447911987E0,1.815544556E1,1.967114728E1
1.014436858E1,-1.453327789E0,7.180717621E0,1.602851852E1,1.762351478E1
1.015430958E1,-1.379231873E0,6.742129669E0,1.377734985E1,1.540045331E1
1.016425058E1,-1.217418365E0,6.233786774E0,1.130045059E1,1.296311647E1
1.017419158E1,-9.120533752E-1,5.676944733E0,8.876391449E0,1.057590980E1
1.018413258E1,-4.942721558E-1,4.813839569E0,6.647676086E0,8.222466401E0
1.019407358E1,-9.445358276E-2,3.796854401E0,4.852309570E0,6.161974763E0
1.020401458E1,3.427871704E-2,2.848276978E0,3.792812805E0,4.743341201E0
1.021395558E1,-2.844085693E-3,2.091750183E0,3.424279175E0,4.012619442E0
1.022389658E1,9.580078125E-3,1.531614990E0,3.554358673E0,3.870323221E0
1.023383758E1,1.883084106E-1,1.461410980E0,3.929179230E0,4.196383149E0
1.024377858E1,2.251318359E-1,1.607207794E0,4.121529236E0,4.429537727E0
1.025371958E1,1.270857239E-1,1.676214294E0,3.606150970E0,3.978714612E0
1.026366058E1,-2.532733154E-1,1.736538849E0,2.547702026E0,3.093622498E0
1.027360158E1,-1.110690308E0,1.960622864E0,1.287023621E0,2.595015371E0
1.028354258E1,-2.147284698E0,2.579585724E0,-8.891510010E-2,3.357528850E0
1.029348358E1,-2.868934021E0,3.338956604E0,-1.260379028E0,4.579079483E0
1.030342458E1,-2.756368103E0,3.890709229E0,-2.008223877E0,5.173794213E0
1.031336558E1,-2.124831390E0,3.941902771E0,-2.292782135E0,5.030939854E0
1.032330658E1,-1.353934479E0,3.604205017E0,-2.024240570E0,4.349825544E0
1.033324758E1,-7.062313843E-1,3.049907684E0,-1.162332916E0,3.339418731E0
1.034318858E1,-5.493576050E-2,2.458637238E0,2.167492676E-1,2.468784164E0
1.035312958E1,4.698728943E-1,1.883533173E0,1.952240295E0,2.753129114E0
1.036307058E1,6.643185425E-1,1.378932495E0,3.604654083E0,3.916159472E0
1.037301158E1,4.935237122E-1,1.153950348E0,4.894821167E0,5.053161517E0
1.038295258E1,-4.266128540E-2,1.263672180E0,5.777236176E0,5.913978795E0
1.039289358E1,-6.174659729E-1,1.764530640E0,6.167025604E0,6.444147532E0
1.040283458E1,-9.590556335E-1,2.323019257E0,6.354735260E0,6.833656883E0
1.041277558E1,-9.951306152E-1,2.916385345E0,6.739435272E0,7.410504451E0
1.042271658E1,-3.802093506E-1,3.477718048E0,7.710615692E0,8.467152787E0
1.043265758E1,6.280938721E-1,3.988006897E0,8.706644440E0,9.597101558E0
1.044259858E1,1.729054413E0,4.851112061E0,9.517059174E0,1.082115210E1
1.045253958E1,2.309996338E0,5.883515167E0,1.027373566E1,1.206239935E1
1.046248058E1,1.990560608E0,6.967261505E0,1.142559036E1,1.352956686E1
1.047242158E1,7.952961731E-1,8.179291077E0,1.302381683E1,1.539977608E1
1.048236258E1,1.404080200E-1,9.602830811E0,1.542751831E1,1.817257261E1
1.049230358E1,2.290237427E-1,1.024289978E1,1.792702057E1,2.064818428E1
1.050224458E1,7.394622803E-1,9.334888000E0,1.901450912E1,2.119524701E1
1.051218558E1,2.050585785E0,8.398435364E0,1.829061447E1,2.023079821E1
1.052212658E1,3.325334930E0,8.753497009E0,1.647129776E1,1.894690508E1
1.053206758E1,3.621568909E0,9.660311279E0,1.449825073E1,1.779428700E1
1.054200858E1,3.520529022E0,1.041534119E1,1.320913147E1,1.718588406E1
1.055194958E1,3.530857544E0,1.081830322E1,1.282787430E1,1.714809023E1
1.056189058E1,3.766617279E0,1.102173019E1,1.269360352E1,1.722769609E1
1.057183158E1,3.954626312E0,1.063762894E1,1.195144684E1,1.648136221E1
1.058177258E1,3.608396301E0,9.699529724E0,1.098894836E1,1.509497886E1
1.059171358E1,2.831811218E0,8.606652374E0,1.060724213E1,1.395016865E1
1.060165458E1,1.546434174E0,7.272925873E0,1.115570160E1,1.340658747E1
1.061159558E1,2.299218750E-1,6.014343109E0,1.215831665E1,1.356649737E1
1.062153658E1,-8.479866028E-1,5.058580627E0,1.272279282E1,1.371779050E1
1.063147758E1,-1.703906708E0,4.430486755E0,1.228555206E1,1.317069856E1
1.064141858E1,-2.067500610E0,4.085753632E0,1.100706070E1,1.192154884E1
1.065135958E1,-1.774559784E0,3.744014282E0,9.039103088E0,9.943444575E0
1.066130058E1,-1.414109344E0,3.216361542E0,6.924001465E0,7.764437075E0
1.067124158E1,-1.104702759E0,2.713557129E0,5.150040436E0,5.925088773E0
1.068118258E1,-7.743397522E-1,2.315534821E0,3.704346771E0,4.436607776E0
1.069112358E1,-5.373825073E-1,2.006726990E0,2.572700043E0,3.306738375E0
1.070106458E1,-4.213737488E-1,1.739832001E0,2.057471466E0,2.727225708E0
1.071100558E1,-3.947291565E-1,1.525477753E0,2.045346680E0,2.581924964E0
1.072094658E1,-2.872526550E-1,1.447789307E0,2.201771393E0,2.650736734E0
1.073088758E1,-2.022294617E-1,1.433568878E0,2.312391357E0,2.728217417E0
1.074082858E1,-4.620890808E-1,1.308578796E0,2.171683960E0,2.577230298E0
1.075076958E1,-1.019978943E0,1.341061249E0,1.783391418E0,2.453423581E0
1.076071058E1,-1.547182617E0,1.682950287E0,1.344204712E0,2.651977003E0
1.077065158E1,-1.609752502E0,2.048490143E0,7.728428650E-1,2.717517448E0
1.078059258E1,-1.493294678E0,2.119292908E0,2.558180237E-1,2.605143813E0
1.079053358E1,-1.384770355E0,2.098935242E0,6.556365967E-2,2.515435684E0
1.080047458E1,-1.087937622E0,1.957180023E0,3.076103210E-1,2.260262379E0
1.081041533E1,-6.409671021E-1,1.610051880E0,1.216969299E0,2.117574121E0
1.082035633E1,-2.968327332E-1,1.248403931E0,2.368973694E0,2.694189750E0
1.083029733E1,1.466949463E-1,9.499246216E-1,3.347937927E0,3.483183107E0
1.084023833E1,5.035528564E-1,7.360194397E-1,4.147575073E0,4.242365977E0
1.085017933E1,4.936734009E-1,8.517288208E-1,4.444258118E0,4.551986998E0
1.086012033E1,4.460723877E-2,1.471589813E0,4.799319763E0,5.020063403E0
1.087006133E1,-6.051914978E-1,2.428100739E0,5.226082306E0,5.794296007E0
1.088000233E1,-1.101409607E0,3.535198517E0,5.659431152E0,6.763127431E0
1.088994333E1,-1.063238983E0,4.665348358E0,6.474935303E0,8.051132816E0
1.089988433E1,-7.252418518E-1,5.714366913E0,7.939040680E0,9.808584601E0
1.090982533E1,-2.739303589E-2,6.875801697E0,9.210496674E0,1.149393963E1
1.091976633E1,6.903643799E-1,7.886649628E0,9.962233429E0,1.272485521E1
1.092970733E1,7.958949280E-1,8.425079956E0,1.107606720E1,1.393896286E1
1.093964833E1,2.727328491E-1,9.012308807E0,1.334699478E1,1.610709046E1
1.094958933E1,-4.340972900E-1,9.734407196E0,1.617686005E1,1.888485967E1
1.095953033E1,-1.213526459E0,9.935139771E0,1.891466675E1,2.139963240E1
1.096947133E1,-1.673819275E0,9.680668945E0,2.097034195E1,2.315755306E1
1.097941233E1,-1.441502380E0,9.229207764E0,2.147479294E1,2.341843156E1
1.098935333E1,-8.881031799E-1,9.159901886E0,2.048774551E1,2.245974724E1
1.099929433E1,3.308120728E-2,9.609117737E0,1.902094574E1,2.131038749E1
1.100923433E1,7.077282715E-1,9.885742493E0,1.770084091E1,2.028665948E1
1.101917533E1,1.062490540E0,1.011611343E1,1.631337616E1,1.922474652E1
1.102911633E1,1.287921753E0,1.037088364E1,1.443238770E1,1.781874812E1
1.103905733E1,1.171463928E0,1.017838394E1,1.249257156E1,1.615661387E1
1.104899833E1,7.077282715E-1,9.597891083E0,1.154983200E1,1.503392869E1
1.105893933E1,2.531236267E-1,8.820258179E0,1.176957504E1,1.470999397E1
1.106888033E1,-3.173400879E-1,7.741451569E0,1.254870483E1,1.474790731E1
1.107882133E1,-6.078858948E-1,6.504873047E0,1.317575089E1,1.470657370E1
1.108876233E1,-6.496490479E-1,5.427114258E0,1.320299423E1,1.428967004E1
1.109870333E1,-9.382489014E-1,4.749772797E0,1.269974075E1,1.359132325E1
1.110864433E1,-1.357826385E0,4.552782440E0,1.156869278E1,1.250624536E1
1.111858533E1,-1.743424530E0,4.487069092E0,9.727521515E0,1.085347838E1
1.112852633E1,-1.966460724E0,4.207300873E0,7.530240784E0,8.847195865E0
1.113846733E1,-1.775457916E0,3.852688293E0,5.623056793E0,7.043736622E0
1.114840833E1,-1.267564087E0,3.209775238E0,4.297712860E0,5.511779352E0
1.115834933E1,-7.623646545E-1,2.352358246E0,3.599864044E0,4.367357361E0
1.116829033E1,-2.884501648E-1,1.657652893E0,3.404520264E0,3.797601195E0
1.117823133E1,1.405577087E-1,1.177750854E0,3.542084198E0,3.735400114E0
1.118817233E1,5.107379150E-1,9.074130249E-1,3.874692535E0,4.012168224E0
1.119811333E1,6.622229004E-1,9.642947388E-1,4.232747955E0,4.391418765E0
1.120805433E1,4.493655396E-1,1.047671356E0,4.188889160E0,4.341236812E0
1.121799533E1,-1.483415222E-1,1.240919495E0,3.495680695E0,3.712367158E0
1.122793633E1,-1.014141083E0,1.806593170E0,2.463726654E0,3.219038683E0
1.123787733E1,-1.694775696E0,2.450853424E0,1.385668488E0,3.286186897E0
1.124781833E1,-2.152523804E0,3.004102936E0,5.749543762E-1,3.740129103E0
1.125775933E1,-2.312391357E0,3.431015167E0,4.538562012E-1,4.162331596E0
1.126770033E1,-1.929188232E0,3.349285126E0,1.191222839E0,4.044563010E0
1.127764133E1,-1.322200470E0,2.674338684E0,2.276316376E0,3.752588137E0
1.128758233E1,-5.807922363E-1,1.896256714E0,3.420986023E0,3.954270415E0
1.129752333E1,3.350033569E-1,1.215472412E0,4.782404938E0,4.945806044E0
1.130746433E1,9.357041931E-1,5.679190063E-1,5.759572906E0,5.862657623E0
1.131740533E1,1.118474121E0,2.197430420E-1,5.869294739E0,5.978954097E0
1.132734633E1,8.571176147E-1,4.993615723E-1,5.455555115E0,5.545006239E0
1.133728733E1,2.799179077E-1,1.290316772E0,5.148094482E0,5.314710548E0
1.134722833E1,-3.553610229E-1,2.051783295E0,5.154381409E0,5.559113585E0
1.135716933E1,-9.316625977E-1,2.884202271E0,5.758824463E0,6.507739786E0
1.136711033E1,-1.166224823E0,4.007017365E0,6.884333954E0,8.050485854E0
1.137705133E1,-6.007008362E-1,4.893473969E0,7.836653595E0,9.258513301E0
1.138699233E1,1.302291870E-1,5.806126099E0,8.478069763E0,1.027646470E1
1.139693333E1,8.637039185E-1,6.856791229E0,8.740773468E0,1.114283138E1
1.140687433E1,1.105151825E0,7.745642853E0,9.476792908E0,1.228926147E1
1.141681533E1,2.682421875E-1,8.587641907E0,1.172826096E1,1.453862622E1
1.142675633E1,-7.945477295E-1,9.717642059E0,1.548724411E1,1.830078150E1
1.143669733E1,-8.279283142E-1,1.063014450E1,1.897768570E1,2.176782010E1
1.144663833E1,-5.638774109E-1,1.010189301E1,2.112721573E1,2.342488942E1
1.145657933E1,-4.261637878E-1,9.144184570E0,2.145668060E1,2.332781322E1
1.146652033E1,1.558259583E-1,9.424551544E0,1.993913635E1,2.205483194E1
1.147646133E1,5.763015747E-1,1.037761963E1,1.775203445E1,2.057089789E1
1.148640233E1,5.483097839E-1,1.141660904E1,1.583886292E1,1.953226008E1
1.149634333E1,8.375083923E-1,1.223106537E1,1.506676849E1,1.942441487E1
1.150628433E1,1.070573730E0,1.233914062E1,1.531824554E1,1.969896358E1
1.151622533E1,8.408015442E-1,1.185534668E1,1.582149902E1,1.978827995E1
1.152616633E1,5.891748047E-1,1.095437027E1,1.618928421E1,1.955602920E1
1.153610733E1,5.950126648E-1,9.729766846E0,1.704670120E1,1.963701670E1
1.154604833E1,2.504292297E-1,8.351582794E0,1.815769089E1,1.998783101E1
1.155598933E1,-3.424877930E-1,7.106322327E0,1.823373276E1,1.957258606E1
1.156593033E1,-9.246272278E-1,6.198609924E0,1.708517120E1,1.819837288E1
1.157587133E1,-1.085841980E0,5.623505859E0,1.501198242E1,1.606743561E1
1.158581233E1,-9.249266052E-1,5.120551758E0,1.211939758E1,1.318921291E1
1.159575333E1,-4.462220764E-1,4.476291504E0,8.866362305E0,9.942267361E0
1.160569433E1,2.163002014E-1,3.941603394E0,5.997428284E0,7.179983921E0
1.161563533E1,5.101391602E-1,3.351680145E0,3.659589844E0,4.988647069E0
1.162557633E1,4.697232056E-1,2.729723511E0,1.926493835E0,3.373930769E0
1.163551733E1,2.550695801E-1,2.153721313E0,5.686674500E-1,2.242088012E0
1.164545833E1,5.912704468E-2,1.693129120E0,-4.420307922E-1,1.750877907E0
1.165539933E1,-1.637594604E-1,1.345252533E0,-9.337582397E-1,1.645729622E0
1.166534033E1,-1.971400452E-1,1.037492523E0,-1.107546844E0,1.530331646E0
1.167528133E1,-1.122665405E-2,8.937913513E-1,-1.136287079E0,1.445730730E0
1.168522233E1,2.013313293E-1,7.987390137E-1,-1.164129181E0,1.426083822E0
1.169516333E1,-1.528321838E-1,8.241860962E-1,-1.477277985E0,1.698526020E0
1.170510433E1,-5.652246094E-1,9.804611206E-1,-2.030826874E0,2.324874332E0
1.171504533E1,-7.051835632E-1,1.201401672E0,-2.370171204E0,2.749247419E0
1.172498633E1,-5.677693176E-1,1.432221680E0,-2.025288391E0,2.544683478E0
1.173492733E1,-1.984872437E-1,1.454674988E0,-1.474433899E0,2.080728677E0
1.174486833E1,1.146615601E-1,1.165476379E0,-9.276210022E-1,1.493975632E0
1.175480933E1,5.272036743E-1,8.339158630E-1,-2.309696960E-1,1.013265208E0
1.176475033E1,1.103954315E0,4.713697815E-1,7.189549255E-1,1.399214346E0
1.177469133E1,1.602417755E0,7.963439941E-2,1.668879547E0,2.315003940E0
1.178463233E1,1.599873047E0,-2.231858826E-1,2.358196106E0,2.858407700E0
1.179457333E1,1.035845947E0,-1.462458801E-1,2.930905151E0,3.112004128E0
1.180451433E1,3.101550293E-1,4.328997803E-1,3.288212128E0,3.331056493E0
1.181445821E1,-2.233355713E-1,1.074166260E0,3.634142761E0,3.796143509E0
1.182439921E1,-6.348298645E-1,1.583257599E0,4.022734680E0,4.369451669E0
1.183434021E1,-8.005352783E-1,2.271676025E0,4.721631317E0,5.300487807E0
1.184428121E1,-5.590873718E-1,3.017574921E0,5.902525635E0,6.652679608E0
1.185422221E1,-6.930587769E-2,3.569477234E0,7.451205139E0,8.262350093E0
1.186416321E1,7.063810730E-1,4.427492981E0,8.461005249E0,9.575504067E0
1.187410421E1,1.584006042E0,5.741909637E0,9.027726746E0,1.081565771E1
1.188404521E1,2.049837341E0,7.489226074E0,9.010512543E0,1.189452297E1
1.189398521E1,1.420096893E0,9.217382355E0,9.163793793E0,1.307485867E1
1.190392621E1,-8.141569519E-1,1.082638641E1,1.073777069E1,1.527001027E1
1.191386721E1,-2.653681641E0,1.266321671E1,1.421833282E1,1.922394527E1
1.192380821E1,-2.972668304E0,1.332334396E1,1.862232468E1,2.308980787E1
1.193374921E1,-2.729723511E0,1.188947571E1,2.253833130E1,2.562786376E1
1.194369021E1,-2.003134460E0,1.028615982E1,2.456751160E1,2.670917928E1
1.195363121E1,-8.978329468E-1,9.949659576E0,2.417742279E1,2.616007650E1
1.196357221E1,-3.787124634E-1,1.052760773E1,2.232652176E1,2.468699094E1
1.197351321E1,-3.264710999E-1,1.122665405E1,2.024105850E1,2.314832162E1
1.198345421E1,-6.330335999E-1,1.170640640E1,1.829001572E1,2.172476369E1
1.199339521E1,-8.252339172E-1,1.227716949E1,1.656919418E1,2.063851007E1
1.200333621E1,-1.087189178E0,1.228435455E1,1.531929337E1,1.966642053E1
1.201327721E1,-1.442999268E0,1.152528305E1,1.485825211E1,1.885953477E1
1.202321821E1,-1.600920868E0,1.042237656E1,1.501692215E1,1.834930057E1
1.203315921E1,-1.754052429E0,9.060358887E0,1.604184082E1,1.850695707E1
1.204310021E1,-1.693129120E0,7.372169495E0,1.720462280E1,1.879400476E1
1.205304121E1,-1.344504089E0,5.903124390E0,1.747810410E1,1.849699142E1
1.206298221E1,-8.747808838E-1,4.899162140E0,1.653641235E1,1.726904644E1
1.207292321E1,-6.846762085E-1,4.191433868E0,1.448028809E1,1.509024991E1
1.208286421E1,-8.414002991E-1,3.821702728E0,1.145882126E1,1.210858996E1
1.209280521E1,-1.332229614E0,3.601660309E0,8.254734192E0,9.104253363E0
1.210274621E1,-1.237925720E0,3.390299835E0,5.430856476E0,6.520797123E0
1.211268721E1,-7.494914246E-1,2.859653320E0,3.294499054E0,4.426406954E0
1.212262821E1,-1.678010559E-1,1.994153137E0,1.825154572E0,2.708503856E0
1.213256921E1,3.800596619E-1,1.191372528E0,9.042695618E-1,1.543216539E0
1.214251021E1,7.616162109E-1,5.243595886E-1,4.186793518E-1,1.015039226E0
1.215245121E1,9.392967224E-1,1.234931946E-1,3.065625000E-1,9.957456845E-1
1.216239221E1,9.430389404E-1,3.083587646E-2,2.016307068E-1,9.648462242E-1
1.217233321E1,9.282197571E-1,3.038681030E-2,-2.311193848E-1,9.570430741E-1
1.218227421E1,9.225315857E-1,-2.320175171E-2,-7.417076111E-1,1.183948068E0
1.219221521E1,6.411167908E-1,7.694000244E-2,-1.167122955E0,1.333839007E0
1.220215621E1,-6.885681152E-3,4.495152283E-1,-1.583257599E0,1.645848103E0
1.221209721E1,-4.558021545E-1,8.915460205E-1,-2.128124542E0,2.351919212E0
1.222203821E1,-7.487429810E-1,1.245559845E0,-2.508333893E0,2.898926404E0
1.223197921E1,-9.705816650E-1,1.416055298E0,-2.322570190E0,2.888178261E0
1.224192021E1,-9.039701843E-1,1.340612183E0,-1.567390594E0,2.251913940E0
1.225186121E1,-3.567082214E-1,8.922944641E-1,-5.204676819E-1,1.092848010E0
1.226180221E1,4.294569397E-1,2.779719543E-1,8.038284302E-1,9.528073339E-1
1.227174321E1,1.231638794E0,-1.472937012E-1,1.911225586E0,2.278467203E0
1.228168421E1,1.786834259E0,-2.064207458E-1,2.681673431E0,3.229049177E0
1.229162521E1,1.690584412E0,1.032852173E-1,3.101849670E0,3.534149808E0
1.230156621E1,7.470964050E-1,7.743397522E-1,3.387755127E0,3.554523863E0
1.231150721E1,-3.076103210E-1,1.916165314E0,3.891607361E0,4.348668931E0
1.232144821E1,-1.204096069E0,3.248694305E0,4.770130463E0,5.895592139E0
1.233138921E1,-1.773062897E0,4.710404663E0,6.150410156E0,7.947276843E0
1.234133021E1,-1.406774597E0,6.441704407E0,7.377258911E0,9.894368068E0
1.235127121E1,-3.517684937E-2,7.823181610E0,8.206983490E0,1.133834141E1
1.236121221E1,1.204545135E0,8.743168488E0,9.274413757E0,1.280268233E1
1.237115321E1,1.598974915E0,9.641899567E0,1.059406952E1,1.441378705E1
1.238109421E1,8.448431396E-1,1.057371185E1,1.294073959E1,1.673259942E1
1.239103521E1,-2.784210205E-1,1.179666870E1,1.653252045E1,2.031165043E1
1.240097621E1,-1.264570312E0,1.272713379E1,2.080104401E1,2.441848694E1
1.241091721E1,-1.359622650E0,1.243793518E1,2.436153992E1,2.738677477E1
1.242085821E1,-9.416917419E-1,1.113609238E1,2.547118240E1,2.781511226E1
1.243079921E1,1.233435059E-1,1.087847809E1,2.389960052E1,2.625923465E1
1.244074021E1,8.830137634E-1,1.148307083E1,2.120445511E1,2.413026203E1
1.245068121E1,9.741741943E-1,1.181702637E1,1.900927002E1,2.240409503E1
1.246062221E1,9.954299927E-1,1.172107590E1,1.735041962E1,2.096214593E1
1.247056321E1,9.557624817E-1,1.136960678E1,1.564920731E1,1.936695974E1
1.248050421E1,1.085392914E0,1.062565384E1,1.452534439E1,1.802964855E1
1.249044521E1,1.039288788E0,9.305549011E0,1.435948929E1,1.714258721E1
1.250038621E1,6.954537964E-1,7.786956940E0,1.455947342E1,1.652569577E1
1.251032721E1,2.356100464E-1,6.191125488E0,1.450977676E1,1.577717239E1
1.252026821E1,-1.218466187E-1,4.880600739E0,1.391147095E1,1.474327420E1
1.253020921E1,-5.303471375E-1,4.007316742E0,1.267309616E1,1.330215102E1
1.254015021E1,-1.412612457E0,3.586392059E0,1.093955109E1,1.159876976E1
1.255009121E1,-2.492017822E0,3.867507477E0,8.838370514E0,9.964163801E0
1.256003221E1,-3.268902283E0,4.271068268E0,6.642886047E0,8.547261627E0
1.256997221E1,-3.375330963E0,4.312232666E0,4.635260925E0,7.174528104E0
1.257991321E1,-2.992726593E0,3.879931641E0,3.215912476E0,5.861089920E0
1.258985421E1,-2.368674316E0,3.203188934E0,2.649340668E0,4.784354015E0
1.259979521E1,-1.760638733E0,2.555934906E0,2.576891327E0,4.033983255E0
1.260973621E1,-1.136586456E0,2.106269989E0,2.540067902E0,3.490006731E0
1.261967721E1,-5.528004456E-1,1.839824066E0,2.433040466E0,3.100036587E0
1.262961821E1,-1.377136230E-2,1.744322662E0,2.327809296E0,2.908873892E0
1.263955921E1,4.168830872E-1,1.739532623E0,2.173480225E0,2.814921232E0
1.264950021E1,5.459147644E-1,1.720222778E0,1.886826324E0,2.610996537E0
1.265944121E1,-9.475296021E-2,1.845212860E0,1.312919769E0,2.266615747E0
1.266938221E1,-9.563612366E-1,2.283501434E0,8.214916992E-1,2.608419872E0
1.267932321E1,-1.873803406E0,2.843786316E0,8.967851257E-1,3.521715970E0
1.268926421E1,-2.443818054E0,3.201242981E0,1.350940704E0,4.247969408E0
1.269920521E1,-2.303859100E0,3.006198578E0,1.893861694E0,4.234584839E0
1.270914621E1,-1.696871338E0,2.379002838E0,2.666255493E0,3.955748374E0
1.271908721E1,-8.339158630E-1,1.672023010E0,3.598965912E0,4.055074876E0
1.272902821E1,-3.921844482E-2,9.780661011E-1,4.337080994E0,4.446169467E0
1.273896921E1,4.757107544E-1,4.860392761E-1,4.705464935E0,4.754359595E0
1.274891021E1,5.408253479E-1,3.980223083E-1,4.664150848E0,4.712241181E0
1.275885121E1,1.067280579E-1,5.517526245E-1,4.439318390E0,4.474747993E0
1.276879221E1,-6.935078430E-1,9.286688232E-1,4.465214539E0,4.613189763E0
1.277873321E1,-1.492097168E0,1.450334015E0,4.974605255E0,5.392264845E0
1.278867421E1,-1.695075073E0,1.937870178E0,5.548212433E0,6.116476235E0
1.279861521E1,-1.618733826E0,2.371518402E0,6.383325806E0,6.999374763E0
1.280855358E1,-1.206790466E0,2.839595032E0,7.468419342E0,8.080651622E0
1.281849458E1,-3.480262756E-1,3.552412720E0,8.347391510E0,9.078529806E0
1.282843558E1,6.566844177E-1,4.528981934E0,8.838969269E0,9.953405925E0
1.283837658E1,1.241817627E0,5.775140533E0,9.153465271E0,1.089404818E1
1.284831758E1,2.326162720E-1,7.096293182E0,9.427994385E0,1.180248132E1
1.285825858E1,-2.055675201E0,8.559350739E0,1.038016434E1,1.361014685E1
1.286819958E1,-3.730691986E0,1.016371445E1,1.244916183E1,1.649850855E1
1.287814058E1,-3.951183472E0,1.095496902E1,1.510793289E1,1.907545107E1
1.288808158E1,-3.154989166E0,1.007764343E1,1.765279083E1,2.057021823E1
1.289802258E1,-1.839075623E0,8.885223083E0,1.925685516E1,2.128745779E1
1.290796358E1,-4.535568237E-1,8.898695068E0,1.947120941E1,2.141309141E1
1.291790458E1,3.188369751E-1,9.664053497E0,1.793420563E1,2.037477162E1
1.292784558E1,4.760101318E-1,1.026550278E1,1.583197723E1,1.887481486E1
1.293778658E1,1.061742096E0,1.079300583E1,1.420995026E1,1.787565264E1
1.294772758E1,1.332978058E0,1.113444580E1,1.253388565E1,1.681817479E1
1.295766858E1,1.062191162E0,1.088251968E1,1.062475571E1,1.524607879E1
1.296760958E1,5.993536377E-1,1.012195129E1,9.817334747E0,1.411358156E1
1.297755058E1,-3.838018799E-1,8.739875336E0,1.077489349E1,1.387915900E1
1.298749158E1,-1.292562103E0,7.407795410E0,1.300720139E1,1.502442803E1
1.299743258E1,-1.762584686E0,6.087091827E0,1.586356155E1,1.708250499E1
1.300737358E1,-1.588496704E0,4.909640350E0,1.765219208E1,1.839096994E1
1.301731458E1,-1.290316772E0,4.061653748E0,1.767240005E1,1.817898986E1
1.302725558E1,-1.245410156E0,3.714226227E0,1.592822708E1,1.640289428E1
1.303719658E1,-1.524878998E0,3.687581635E0,1.291873535E1,1.352099247E1
1.304713758E1,-2.087858276E0,3.722159729E0,9.450298004E0,1.036926987E1
1.305707858E1,-2.315085754E0,3.705993347E0,6.211632843E0,7.594629110E0
1.306701958E1,-1.733545074E0,3.365900574E0,3.695964203E0,5.290993913E0
1.307696058E1,-5.578898621E-1,2.651436310E0,2.410736847E0,3.626707563E0
1.308690158E1,4.284091187E-1,1.939965820E0,2.192939758E0,2.959051629E0
1.309684258E1,8.867559814E-1,1.568288727E0,2.381547546E0,2.986240850E0
1.310678358E1,8.119116211E-1,1.506018219E0,2.616708527E0,3.126412460E0
1.311672458E1,3.712280273E-1,1.459465027E0,2.654430084E0,3.051859676E0
1.312666558E1,7.783813477E-3,1.460662537E0,2.351310425E0,2.768078096E0
1.313660658E1,-6.171665955E-1,1.606159973E0,1.939367065E0,2.592641333E0
1.314654758E1,-1.410666504E0,1.946402435E0,1.569186859E0,2.870681073E0
1.315648758E1,-1.889221344E0,2.230661316E0,1.173559570E0,3.149960199E0
1.316642858E1,-1.861977997E0,2.400258636E0,8.996292114E-1,3.168207111E0
1.317636958E1,-1.522933044E0,2.356250153E0,8.858578491E-1,2.942105363E0
1.318631058E1,-8.783734131E-1,1.912572784E0,1.341809692E0,2.495982323E0
1.319625158E1,-2.278262329E-1,1.244362335E0,2.204615479E0,2.541785164E0
1.320619258E1,2.456391907E-1,7.174580383E-1,2.995870056E0,3.090359533E0
1.321613358E1,7.056326294E-1,3.382965088E-1,3.613635406E0,3.697394053E0
1.322607458E1,9.265731812E-1,8.681945801E-2,4.015549622E0,4.121979408E0
1.323601558E1,6.942562866E-1,1.664538574E-1,4.158202972E0,4.219046176E0
1.324595658E1,-6.182144165E-2,6.550378418E-1,4.214785309E0,4.265830712E0
1.325589758E1,-8.488847351E-1,1.283580780E0,4.410129089E0,4.670912491E0
1.326583858E1,-1.153800659E0,1.974394226E0,4.913382568E0,5.419484919E0
1.327577958E1,-1.111438751E0,2.652484131E0,5.794450378E0,6.468896610E0
1.328572058E1,-7.945477295E-1,3.282224579E0,7.163204041E0,7.919330553E0
1.329566158E1,-1.088237000E-1,4.300856323E0,7.890840912E0,8.987467831E0
1.330560258E1,7.827223206E-1,5.644312592E0,7.563471680E0,9.469795284E0
1.331554358E1,1.285526733E0,7.070247345E0,6.924300842E0,9.979324559E0
1.332548458E1,5.929170227E-1,8.281378784E0,7.135661316E0,1.094762292E1
1.333542558E1,-8.237370300E-1,9.453740845E0,9.358538818E0,1.332794086E1
1.334536658E1,-1.943109283E0,1.064466431E1,1.362526611E1,1.739920770E1
1.335530758E1,-2.030228119E0,1.055320450E1,1.895493301E1,2.178947996E1
1.336524858E1,-1.882185974E0,8.912316742E0,2.329261276E1,2.501035432E1
1.337518958E1,-1.456022186E0,7.877518616E0,2.456511658E1,2.583834849E1
1.338513058E1,-3.101550293E-1,8.435408478E0,2.301449112E1,2.451365158E1
1.339507158E1,5.400769043E-1,9.366322632E0,2.023746597E1,2.230638276E1
1.340501258E1,1.105900269E0,9.973160706E0,1.785621780E1,2.048246724E1
1.341495358E1,1.661395111E0,1.070049820E1,1.630155075E1,1.957042290E1
1.342489458E1,1.749711456E0,1.122605530E1,1.510643600E1,1.890212201E1
1.343483558E1,1.523232422E0,1.108968887E1,1.449570602E1,1.831466433E1
1.344477658E1,8.117619324E-1,1.044468018E1,1.480960327E1,1.814041484E1
1.345471758E1,-3.378474426E-1,9.843230896E0,1.586445969E1,1.867309338E1
1.346465858E1,-1.495689697E0,9.029373322E0,1.729249008E1,1.956519572E1
1.347459958E1,-2.156415710E0,8.103398895E0,1.795576080E1,1.981727904E1
1.348454058E1,-2.240091705E0,7.437583466E0,1.717812790E1,1.885268513E1
1.349448158E1,-1.846110992E0,7.047045593E0,1.546703613E1,1.709673022E1
1.350442258E1,-1.253643036E0,6.679559784E0,1.323188416E1,1.487517724E1
1.351436358E1,-8.744815063E-1,6.388415222E0,1.100436630E1,1.275431867E1
1.352430458E1,-7.135661316E-1,6.356082458E0,8.851243744E0,1.092032402E1
1.353424558E1,-9.098080444E-1,6.289470978E0,6.965614929E0,9.428944119E0
1.354418658E1,-1.327738953E0,6.132597198E0,5.606890411E0,8.414800010E0
1.355412758E1,-1.619182892E0,5.815855865E0,4.439019012E0,7.493385248E0
1.356406858E1,-1.387165375E0,5.279970245E0,3.354224854E0,6.407272270E0
1.357400958E1,-7.361691284E-1,4.517156525E0,2.434537354E0,5.183977255E0
1.358395058E1,-1.047821045E-2,3.774850159E0,1.888323212E0,4.220825519E0
1.359389158E1,9.202862549E-1,3.173999634E0,1.645977173E0,3.691942757E0
1.360383258E1,1.763632507E0,2.667902069E0,1.383423157E0,3.484531633E0
1.361377358E1,2.331401825E0,2.145039368E0,9.294172668E-1,3.301582168E0
1.362371458E1,2.451452179E0,1.655706940E0,4.757107544E-1,2.996211604E0
1.363365458E1,2.193837891E0,1.441352692E0,1.571731567E-1,2.629662654E0
1.364359558E1,1.759441223E0,1.468146973E0,-7.918533325E-2,2.292893209E0
1.365353658E1,1.372046814E0,1.460662537E0,-1.597178650E-1,2.010362480E0
1.366347758E1,1.122665405E0,1.368304596E0,-5.373825073E-2,1.770740771E0
1.367341858E1,1.015787659E0,1.071022797E0,2.026785278E-1,1.489964088E0
1.368335958E1,9.431886292E-1,7.099736023E-1,8.643026733E-1,1.463108478E0
1.369330058E1,1.051114197E0,3.896397400E-1,1.633553009E0,1.981200549E0
1.370324158E1,1.281335449E0,3.083587646E-2,2.393522644E0,2.715091533E0
1.371318258E1,1.301992493E0,-3.254232788E-1,3.156486053E0,3.429940082E0
1.372312358E1,1.201551361E0,-4.790039062E-1,3.859873352E0,4.070846682E0
1.373306458E1,6.441105652E-1,-4.764591980E-1,4.372407532E0,4.445204091E0
1.374300558E1,-9.669891357E-2,-1.329235840E-1,4.650828552E0,4.653732436E0
1.375294658E1,-5.174739075E-1,3.481759644E-1,4.724475403E0,4.765466775E0
1.376288758E1,-8.578660583E-1,9.440867615E-1,4.613406372E0,4.786517768E0
1.377282858E1,-1.080303497E0,1.791025543E0,4.639901276E0,5.089549291E0
1.378276958E1,-1.008901978E0,3.062780914E0,4.593348083E0,5.612250595E0
1.379271058E1,-8.162525940E-1,4.385280762E0,4.540507965E0,6.364995541E0
1.380265158E1,-3.396437073E-1,5.471272430E0,5.038821716E0,7.445797751E0
1.381259537E1,-2.523751831E-1,6.047274628E0,6.575226746E0,8.936824403E0
1.382253637E1,-6.743476868E-1,6.387217712E0,8.884025574E0,1.096253644E1
1.383247737E1,-1.585053864E0,7.113208008E0,1.182885178E1,1.389359055E1
1.384241837E1,-1.993404694E0,8.496631165E0,1.486169495E1,1.723474340E1
1.385235937E1,-1.715582428E0,9.466314697E0,1.703667206E1,1.956534006E1
1.386230037E1,-1.227746887E0,9.958640900E0,1.717408630E1,1.989047841E1
1.387224138E1,-3.579057312E-1,1.105765549E1,1.510359192E1,1.872213477E1
1.388218238E1,5.622308350E-1,1.231324448E1,1.235560638E1,1.745259586E1
1.389212338E1,8.560697937E-1,1.364756973E1,1.039992325E1,1.717985502E1
1.390206437E1,6.092330933E-1,1.481589020E1,9.457033997E0,1.758741764E1
1.391200537E1,-1.148112488E-1,1.511407013E1,9.680070190E0,1.794859483E1
1.392194637E1,-8.464897156E-1,1.496063919E1,1.108085724E1,1.863659483E1
1.393188737E1,-1.736239471E0,1.417686905E1,1.357886261E1,1.970745172E1
1.394182837E1,-2.309547272E0,1.283730469E1,1.617461472E1,2.077856014E1
1.395176937E1,-2.214494934E0,1.103909409E1,1.811727493E1,2.133075800E1
1.396171038E1,-1.466949463E0,9.192384338E0,1.897618881E1,2.113640491E1
1.397165138E1,-5.659730530E-1,7.721992035E0,1.854957596E1,2.010065309E1
1.398159237E1,-1.348695374E-1,6.657555542E0,1.698368225E1,1.824244223E1
1.399153337E1,-1.583706665E-1,6.189478912E0,1.436936874E1,1.564651682E1
1.400147437E1,-3.275189209E-1,6.140081635E0,1.103041214E1,1.262845450E1
1.401141537E1,-7.071295166E-1,6.191873932E0,7.557035065E0,9.795310812E0
1.402135637E1,-8.872050476E-1,6.146069183E0,4.527185669E0,7.684836321E0
1.403129737E1,-8.098159790E-1,5.702391815E0,2.664159851E0,6.345929565E0
1.404123838E1,-6.068380737E-1,5.082680511E0,2.197430420E0,5.570511115E0
1.405117938E1,-3.761677551E-1,4.618944855E0,2.588866425E0,5.308331481E0
1.406112038E1,-3.023712158E-1,4.098626862E0,3.017874298E0,5.098797484E0
1.407106037E1,-3.324586487E-1,3.424428864E0,2.967728577E0,4.543638927E0
1.408100237E1,-4.808001709E-1,2.875370636E0,2.705174561E0,3.977045952E0
1.409094237E1,-5.797444153E-1,2.570604401E0,2.335144043E0,3.520938550E0
1.410088337E1,-6.116281128E-1,2.262994080E0,1.786385193E0,2.947270468E0
1.411082438E1,-7.403604126E-1,1.950444031E0,1.146316223E0,2.380421463E0
1.412076538E1,-1.054557037E0,1.931583252E0,4.989125061E-1,2.256550042E0
1.413070637E1,-1.211580505E0,2.015558624E0,-3.951782227E-2,2.352013084E0
1.414064737E1,-1.240919495E0,1.969753876E0,-3.110531616E-1,2.348737021E0
1.415058837E1,-1.016536102E0,1.821711731E0,-3.559597778E-1,2.116290774E0
1.416052937E1,-7.450007629E-1,1.525328064E0,-1.574725342E-1,1.704831205E0
1.417047037E1,-6.177653503E-1,1.099463654E0,5.975573730E-1,1.395539024E0
1.418041137E1,-5.822891235E-2,7.665559387E-1,1.596130829E0,1.771618536E0
1.419035238E1,5.628295898E-1,4.520599365E-1,2.602787476E0,2.701043868E0
1.420029338E1,9.650431824E-1,1.866618347E-1,3.380420380E0,3.520425106E0
1.421023438E1,1.084045715E0,2.266287231E-1,4.011957092E0,4.162008578E0
1.422017537E1,7.135661316E-1,7.119195557E-1,4.581672363E0,4.691239465E0
1.423011637E1,1.736389160E-1,1.834135895E0,4.819078674E0,5.159236787E0
1.424005737E1,-3.683839417E-1,3.468736725E0,5.073549500E0,6.157007854E0
1.424999837E1,-5.890251160E-1,5.440286865E0,5.424419861E0,7.705063438E0
1.425993937E1,-3.074606323E-1,7.034771118E0,5.921386414E0,9.200290962E0
1.426988037E1,-8.247848511E-2,7.710316315E0,7.078929291E0,1.046742663E1
1.427982138E1,2.188449097E-1,7.904761963E0,9.120833130E0,1.207156791E1
1.428976238E1,7.080276489E-1,8.292156372E0,1.204260727E1,1.463849549E1
1.429970337E1,6.011499023E-1,9.315578156E0,1.516616180E1,1.780881359E1
1.430964437E1,-4.710704041E-1,1.037327866E1,1.814167419E1,2.090328108E1
1.431958537E1,-1.584754486E0,1.103160965E1,1.973675720E1,2.266599751E1
1.432952637E1,-2.240091705E0,1.173903854E1,1.919802750E1,2.261387398E1
1.433946737E1,-2.247725830E0,1.285541702E1,1.690659256E1,2.135759561E1
1.434940837E1,-1.880689087E0,1.403256912E1,1.405187897E1,1.994756351E1
1.435934937E1,-1.594933319E0,1.490914627E1,1.130673752E1,1.877947731E1
1.436929038E1,-1.464853821E0,1.503084320E1,9.496102753E0,1.783950704E1
1.437923138E1,-1.332828369E0,1.406565033E1,9.405840454E0,1.697317841E1
1.438917237E1,-1.405876465E0,1.268596939E1,1.136601425E1,1.709083345E1
1.439911337E1,-1.857936401E0,1.135284164E1,1.420560928E1,1.827944956E1
1.440905437E1,-2.185006256E0,9.708211670E0,1.700418961E1,1.970193113E1
1.441899537E1,-1.983076172E0,7.930209045E0,1.834390366E1,2.008281873E1
1.442893637E1,-1.538350983E0,6.574328613E0,1.781490372E1,1.905148590E1
1.443887737E1,-1.198258209E0,5.739364929E0,1.549652481E1,1.656859722E1
1.444881838E1,-9.979747009E-1,5.535189514E0,1.233539841E1,1.355715052E1
1.445875938E1,-7.777825928E-1,5.477709045E0,8.803193665E0,1.039742568E1
1.446870038E1,-5.766009521E-1,5.236111450E0,5.355413361E0,7.511976041E0
1.447864037E1,-2.646496582E-1,4.903952179E0,2.721490631E0,5.614739323E0
1.448858137E1,8.412506104E-2,4.342170410E0,1.148262177E0,4.492218486E0
1.449852237E1,3.236270142E-1,3.654650116E0,6.529421997E-1,3.726598373E0
1.450846338E1,4.480183411E-1,2.917133789E0,9.225315857E-1,3.092160168E0
1.451840438E1,6.059399414E-1,2.273921356E0,1.426982574E0,2.752119331E0
1.452834538E1,8.059240723E-1,1.762434998E0,2.079775085E0,2.842737261E0
1.453828637E1,9.295669556E-1,1.469494171E0,2.402204590E0,2.965483896E0
1.454822737E1,9.437873840E-1,1.337019653E0,2.320025482E0,2.839167909E0
1.455816837E1,7.482939148E-1,1.284179535E0,2.191293182E0,2.647796569E0
1.456810937E1,2.667453003E-1,1.433718567E0,1.957778778E0,2.441229143E0
1.457805037E1,-4.257147217E-1,1.866468658E0,1.545386353E0,2.460316495E0
1.458799137E1,-1.107696533E0,2.342927856E0,1.078806610E0,2.807156257E0
1.459793238E1,-1.427731018E0,2.646047516E0,7.448510742E-1,3.097545228E0
1.460787338E1,-1.538500671E0,2.696642303E0,7.620652771E-1,3.196812086E0
1.461781438E1,-1.619931335E0,2.589914246E0,1.403331757E0,3.361721784E0
1.462775537E1,-1.381776581E0,2.311942291E0,2.540816345E0,3.702719457E0
1.463769637E1,-7.050338745E-1,1.737287292E0,3.709585876E0,4.156472937E0
1.464763737E1,5.119354248E-2,1.101409607E0,4.901557159E0,5.024040853E0
1.465757837E1,5.352868652E-1,7.571255493E-1,5.615123291E0,5.691166901E0
1.466751937E1,3.981719971E-1,8.385562134E-1,5.799390106E0,5.873214032E0
1.467746037E1,-3.185375977E-1,1.541644135E0,5.771997070E0,5.982815643E0
1.468740138E1,-1.109043732E0,2.581082611E0,5.723198547E0,6.375497397E0
1.469734238E1,-1.890568542E0,3.690276031E0,6.111790466E0,7.385551388E0
1.470728337E1,-2.287393341E0,4.726870422E0,6.998995514E0,8.749937742E0
1.471722437E1,-2.019749908E0,5.583538971E0,8.620573425E0,1.046754906E1
1.472716537E1,-1.296004944E0,6.028862915E0,1.066846481E1,1.232245748E1
1.473710637E1,-6.345304871E-1,6.287375336E0,1.217029175E1,1.371312214E1
1.474704737E1,-1.079255676E-1,6.669979706E0,1.329789688E1,1.487730952E1
1.475698837E1,-3.297642517E-1,7.206314392E0,1.437999664E1,1.608800842E1
1.476692938E1,-1.133592682E0,7.864495697E0,1.592927490E1,1.780104277E1
1.477687038E1,-1.836081848E0,8.768166504E0,1.751687347E1,1.967467399E1
1.478681138E1,-1.987716522E0,9.433832245E0,1.827804062E1,2.066482462E1
1.479675237E1,-1.587748260E0,9.127120056E0,1.792043427E1,2.017342879E1
1.480669337E1,-8.306227112E-1,8.833131409E0,1.639256149E1,1.863948006E1
1.481663121E1,-2.799179077E-1,9.453291779E0,1.421548874E1,1.707405047E1
1.482657221E1,-2.300715637E-1,1.022703278E1,1.227642105E1,1.597985126E1
1.483651321E1,-4.255650330E-1,1.063538361E1,1.163829803E1,1.577157161E1
1.484645321E1,-4.174818420E-1,1.062715073E1,1.234512817E1,1.629456392E1
1.485639421E1,-6.900650024E-2,1.024499542E1,1.336480774E1,1.683991624E1
1.486633521E1,4.273612976E-1,9.426946564E0,1.396910110E1,1.685780961E1
1.487627621E1,7.581733704E-1,8.370892639E0,1.442370575E1,1.669400964E1
1.488621721E1,7.450007629E-1,7.434739380E0,1.481723740E1,1.659460454E1
1.489615821E1,2.909948730E-1,6.533014526E0,1.510029877E1,1.645551517E1
1.490609921E1,-3.525169373E-1,5.962550812E0,1.529878601E1,1.642343246E1
1.491604021E1,-1.138083344E0,5.699398041E0,1.494686783E1,1.603705801E1
1.492598121E1,-1.638193359E0,5.787415009E0,1.358724518E1,1.485904040E1
1.493592221E1,-1.693129120E0,5.870791626E0,1.140493332E1,1.293852328E1
1.494586321E1,-1.684297485E0,5.517526245E0,8.709338837E0,1.044665194E1
1.495580421E1,-1.222807159E0,5.157824249E0,6.002368011E0,8.007922957E0
1.496574521E1,-5.081932068E-1,4.580025787E0,3.484903107E0,5.777494804E0
1.497568621E1,6.271957397E-2,3.944597168E0,1.736389160E0,4.310316448E0
1.498562721E1,5.005590820E-1,3.343896332E0,9.657916260E-1,3.516383872E0
1.499556821E1,6.706054688E-1,2.747985535E0,9.204359436E-1,2.974615693E0
1.500550921E1,7.728428650E-1,2.313139801E0,1.305734711E0,2.766377590E0
1.501545021E1,6.490502930E-1,1.971550140E0,1.967059479E0,2.859650194E0
1.502539121E1,2.387535095E-1,1.875449982E0,2.531086578E0,3.159226984E0
1.503533221E1,-2.622546387E-1,2.083816681E0,2.718197479E0,3.435064336E0
1.504527321E1,-9.710307312E-1,2.256258087E0,2.718047791E0,3.663520851E0
1.505521421E1,-1.490001526E0,2.486479340E0,2.552342377E0,3.862270791E0
1.506515521E1,-1.553170166E0,2.644400940E0,2.123633881E0,3.730283468E0
1.507509621E1,-1.405577087E0,2.636916504E0,1.616937561E0,3.397567170E0
1.508503721E1,-1.221759338E0,2.593057709E0,1.406175842E0,3.192800442E0
1.509497821E1,-9.816586304E-1,2.497107239E0,1.780098267E0,3.219929823E0
1.510491921E1,-6.994953918E-1,2.223176880E0,2.692451019E0,3.561053458E0
1.511486021E1,-4.567002869E-1,1.922003174E0,3.819008331E0,4.299708826E0
1.512480121E1,-2.839595032E-1,1.732497253E0,4.795427856E0,5.106692477E0
1.513474221E1,-3.814068604E-1,1.578317871E0,5.317841492E0,5.560215520E0
1.514468321E1,-7.954458618E-1,1.523082733E0,5.570066986E0,5.829078946E0
1.515462421E1,-1.534459076E0,1.763931885E0,5.520370331E0,5.995040362E0
1.516456521E1,-1.866318970E0,2.123933258E0,5.234764252E0,5.949537440E0
1.517450621E1,-1.978585510E0,2.395169220E0,5.059628448E0,5.937295365E0
1.518444721E1,-1.933678894E0,2.561323700E0,5.466332703E0,6.338792186E0
1.519438821E1,-1.561403046E0,2.674937439E0,6.670129395E0,7.354175407E0
1.520432821E1,-9.846524048E-1,2.763104095E0,8.072712708E0,8.589119574E0
1.521426921E1,-7.872129822E-1,3.104993134E0,9.237740021E0,9.777347663E0
1.522421021E1,-8.497828674E-1,4.039050751E0,9.872420197E0,1.070050197E1
1.523415121E1,-1.110690308E0,5.313650208E0,9.957593079E0,1.134117152E1
1.524409221E1,-1.442849579E0,6.642137604E0,1.012988480E1,1.219894966E1
1.525403321E1,-2.168091431E0,7.682623901E0,1.116992203E1,1.372918383E1
1.526397421E1,-2.642604675E0,8.590036926E0,1.348291214E1,1.620373456E1
1.527391521E1,-2.401306458E0,9.122479706E0,1.610905106E1,1.866781815E1
1.528385621E1,-1.670825500E0,8.786877594E0,1.845108078E1,2.050471306E1
1.529379721E1,-9.749226379E-1,7.977510681E0,1.927766190E1,2.088586601E1
1.530373821E1,-4.622387695E-1,7.562723236E0,1.863894012E1,2.012010279E1
1.531367921E1,-2.706372070E-1,8.057444458E0,1.728201187E1,1.906996565E1
1.532362021E1,-3.064128113E-1,8.941506042E0,1.610920074E1,1.842690337E1
1.533356121E1,-8.496331787E-1,9.123826904E0,1.529085251E1,1.782628016E1
1.534350221E1,-1.324445801E0,9.356592865E0,1.499940857E1,1.772800734E1
1.535344321E1,-1.855242004E0,9.281299438E0,1.494058090E1,1.768630543E1
1.536338421E1,-2.454595642E0,8.448281708E0,1.519280640E1,1.755619178E1
1.537332521E1,-2.872825928E0,7.382348328E0,1.600307144E1,1.785638517E1
1.538326621E1,-3.104993134E0,6.396348724E0,1.713890945E1,1.855522774E1
1.539320721E1,-3.352877655E0,5.316045227E0,1.787986862E1,1.895235678E1
1.540314821E1,-3.306174774E0,4.518354034E0,1.734203705E1,1.822340703E1
1.541308921E1,-3.106340332E0,4.288132782E0,1.553813828E1,1.641557718E1
1.542303021E1,-2.659220123E0,4.421804810E0,1.293939240E1,1.393024354E1
1.543297121E1,-2.587369537E0,4.250411224E0,9.955497437E0,1.112979811E1
1.544291221E1,-2.526895294E0,4.093537445E0,7.044051819E0,8.530000860E0
1.545285321E1,-2.187550964E0,4.031117249E0,4.393363953E0,6.351136301E0
1.546279421E1,-1.964814148E0,3.595822449E0,2.603984985E0,4.855015090E0
1.547273521E1,-1.675765228E0,2.876568146E0,2.164049835E0,3.970635351E0
1.548267621E1,-1.346899109E0,2.253563690E0,2.398162994E0,3.555822305E0
1.549261721E1,-9.306147766E-1,1.785936127E0,2.855462036E0,3.494177321E0
1.550255821E1,-3.725752258E-1,1.445094910E0,3.404969330E0,3.717650835E0
1.551249921E1,-8.262817383E-2,1.351240082E0,3.748804321E0,3.985750997E0
1.552244021E1,3.547622681E-2,1.290915527E0,3.538641357E0,3.766922367E0
1.553238121E1,-1.046324158E-1,1.255439301E0,2.707270203E0,2.986032105E0
1.554232121E1,-5.602848816E-1,1.672921143E0,1.756447449E0,2.489516406E0
1.555226221E1,-1.099613342E0,2.302960968E0,7.628137207E-1,2.663580953E0
1.556220321E1,-1.513352966E0,2.602637787E0,-1.462458801E-1,3.014191186E0
1.557214421E1,-1.417103119E0,2.806513824E0,-3.845503235E-1,3.167424829E0
1.558208521E1,-1.252595215E0,2.620899811E0,3.306623840E-1,2.923601923E0
1.559202621E1,-1.094374237E0,2.045196991E0,1.857038269E0,2.971376253E0
1.560196721E1,-7.794291687E-1,1.369651794E0,3.374881897E0,3.724685716E0
1.561190821E1,-1.658551025E-1,6.673123169E-1,4.542753296E0,4.594499010E0
1.562184921E1,4.748126221E-1,1.607656860E-1,5.120402069E0,5.144881921E0
1.563179021E1,6.762936401E-1,-1.568737793E-1,5.137616272E0,5.184311278E0
1.564173121E1,4.499642944E-1,-1.210981750E-1,4.513264618E0,4.537255795E0
1.565167221E1,1.526824951E-2,3.221301270E-1,3.518283691E0,3.533032843E0
1.566161321E1,-5.171745300E-1,8.511300659E-1,2.983445892E0,3.145288743E0
1.567155421E1,-1.173559570E0,1.571432190E0,3.433110809E0,3.953845093E0
1.568149521E1,-1.283281403E0,2.414479065E0,4.647984467E0,5.392613459E0
1.569143621E1,-9.261241150E-1,3.000211029E0,6.626420288E0,7.332695134E0
1.570137721E1,-5.601351929E-1,3.378025360E0,8.476872253E0,9.142328476E0
1.571131821E1,-1.678010559E-1,3.994443512E0,9.510472870E0,1.031662883E1
1.572125921E1,2.918930054E-2,5.032684479E0,1.003992188E1,1.123070774E1
1.573120021E1,-1.375639343E-1,6.669081573E0,1.035157379E1,1.231465196E1
1.574114121E1,-8.875044250E-1,8.191715240E0,1.118548965E1,1.389269742E1
1.575108221E1,-1.940863953E0,9.340426483E0,1.348051712E1,1.651468624E1
1.576102321E1,-2.252815247E0,1.006402176E1,1.660691574E1,1.954864090E1
1.577096421E1,-1.988614655E0,9.609417114E0,1.991129425E1,2.219808830E1
1.578090521E1,-1.627116394E0,8.550818481E0,2.177327225E1,2.344865431E1
1.579084621E1,-1.171912994E0,7.936495972E0,2.159783707E1,2.303970300E1
1.580078721E1,-9.786648560E-1,8.187673645E0,2.043251038E1,2.203368478E1
1.581072808E1,-8.662486267E-1,8.469088440E0,1.946567093E1,2.124589820E1
1.582066908E1,-4.972659302E-1,8.284073181E0,1.915581528E1,2.087626405E1
1.583061008E1,2.948867798E-2,7.972421265E0,1.910522049E1,2.070192794E1
1.584055108E1,3.454815674E-1,7.446415100E0,1.857232864E1,2.001249226E1
1.585049108E1,1.606159973E-1,6.748266907E0,1.793540314E1,1.916360064E1
1.586043208E1,-8.475375366E-1,5.932463379E0,1.788810150E1,1.886522242E1
1.587037308E1,-2.269131317E0,5.353317719E0,1.830079330E1,1.920223953E1
1.588031408E1,-3.543431396E0,4.861889648E0,1.848056946E1,1.943515692E1
1.589025508E1,-4.113595734E0,4.615801392E0,1.742122238E1,1.848584003E1
1.590019608E1,-3.891457672E0,4.403243408E0,1.506527161E1,1.617078860E1
1.591013708E1,-3.100203094E0,4.126019897E0,1.204979233E1,1.310850085E1
1.592007808E1,-2.357447662E0,3.728296967E0,8.910670166E0,9.942726012E0
1.593001908E1,-1.604513397E0,3.273542633E0,6.078110504E0,7.087592815E0
1.593996008E1,-1.111438751E0,2.719394989E0,3.711082764E0,4.733132206E0
1.594990108E1,-7.981402588E-1,2.077230377E0,1.900148621E0,2.926171337E0
1.595984208E1,-5.101391602E-1,1.554667053E0,8.505313110E-1,1.844081105E0
1.596978308E1,-1.863624573E-1,1.025367737E0,5.212161255E-1,1.165236547E0
1.597972408E1,8.113128662E-2,6.047424316E-1,8.590635681E-1,1.053701053E0
1.598966508E1,1.459465027E-1,4.616400146E-1,1.601819000E0,1.673390568E0
1.599960608E1,3.249742126E-1,4.447251892E-1,1.544787598E0,1.640048004E0
1.600954708E1,2.221380615E-1,5.210664368E-1,9.551637268E-1,1.110492366E0
1.601948808E1,-2.484832764E-1,8.583151245E-1,6.286926270E-2,8.957685727E-1
1.602942908E1,-7.902067566E-1,1.356628876E0,-9.425898743E-1,1.831213886E0
1.603937008E1,-1.207389221E0,1.884730682E0,-1.599124603E0,2.750854044E0
1.604931108E1,-1.282532959E0,2.302811279E0,-1.679357758E0,3.125391665E0
1.605925208E1,-1.103056183E0,2.368075562E0,-1.137783966E0,2.849397684E0
1.606919308E1,-6.779402161E-1,1.959275665E0,3.263214111E-2,2.073506433E0
1.607913408E1,-2.619552612E-2,1.338067474E0,1.638941803E0,2.115949197E0
1.608907508E1,4.415817261E-1,7.866142273E-1,3.178490295E0,3.304021326E0
1.609901608E1,6.243516541E-1,4.596940613E-1,4.254602509E0,4.324670638E0
1.610895708E1,6.610253906E-1,4.276606750E-1,4.479884033E0,4.548539235E0
1.611889808E1,2.782713318E-1,6.095324707E-1,4.166735229E0,4.220266252E0
1.612883908E1,-7.188052368E-1,1.181343384E0,3.798051910E0,4.041961340E0
1.613878008E1,-1.561103668E0,1.985321503E0,3.969146118E0,4.704536857E0
1.614872108E1,-2.169288940E0,2.635269928E0,4.427492981E0,5.590452235E0
1.615866108E1,-2.392474823E0,3.181334381E0,5.244793396E0,6.584275358E0
1.616860208E1,-2.078128510E0,3.527414703E0,6.767576752E0,7.909574431E0
1.617854308E1,-1.412013702E0,3.917503510E0,7.921078033E0,8.948971653E0
1.618848408E1,-5.225633240E-1,4.511019287E0,8.363408203E0,9.516772783E0
1.619842508E1,3.086581421E-1,5.583838348E0,8.771609344E0,1.040267519E1
1.620836608E1,2.429447937E-1,6.902745667E0,9.157506866E0,1.147025945E1
1.621830708E1,-7.453001404E-1,8.405770111E0,1.059272232E1,1.354319791E1
1.622824808E1,-2.427352295E0,9.887239380E0,1.366897522E1,1.704377967E1
1.623818908E1,-3.458707581E0,1.048270111E1,1.762030838E1,2.079242526E1
1.624813008E1,-3.210373993E0,9.697883148E0,2.158017380E1,2.387591548E1
1.625807108E1,-2.037712555E0,7.845485229E0,2.416604645E1,2.548924698E1
1.626801208E1,-3.580554199E-1,6.333629150E0,2.440884155E1,2.521972656E1
1.627795308E1,7.791297913E-1,6.186934204E0,2.335548203E1,2.417361658E1
1.628789408E1,8.490344238E-1,6.998247070E0,2.222667938E1,2.331783862E1
1.629783508E1,8.140072632E-1,7.720495148E0,2.130624344E1,2.267652228E1
1.630777608E1,9.084608459E-1,7.914491730E0,2.049148773E1,2.198557595E1
1.631771708E1,4.275109863E-1,7.886799316E0,1.975337265E1,2.127393006E1
1.632765808E1,-4.688250732E-1,7.535030823E0,1.923095901E1,2.065977423E1
1.633759908E1,-1.416654053E0,6.847959595E0,1.927736252E1,2.050653957E1
1.634754008E1,-2.114502869E0,6.264323273E0,1.982387604E1,2.089734264E1
1.635748108E1,-2.779120789E0,5.778882751E0,2.013388138E1,2.113036151E1
1.636742208E1,-2.926264801E0,5.501808929E0,1.920221878E1,2.018806908E1
1.637736308E1,-2.847827911E0,5.414540405E0,1.739352997E1,1.843806542E1
1.638730408E1,-2.505789185E0,5.300776978E0,1.508577896E1,1.618511485E1
1.639724508E1,-2.197729797E0,5.092859344E0,1.241039246E1,1.359356736E1
1.640718608E1,-1.933080139E0,4.949607239E0,9.506131897E0,1.089045244E1
1.641712708E1,-1.647174683E0,4.532125397E0,6.815926208E0,8.349263149E0
1.642706808E1,-1.297801208E0,3.948040009E0,4.585713959E0,6.188705874E0
1.643700908E1,-1.062191162E0,3.233276367E0,2.926863556E0,4.488747755E0
1.644694908E1,-9.015751648E-1,2.466271362E0,1.844614105E0,3.209039328E0
1.645689008E1,-6.370751953E-1,1.740281067E0,1.192719727E0,2.203865545E0
1.646683108E1,-3.821553040E-1,1.233435059E0,8.360115051E-1,1.538284745E0
1.647677208E1,-1.932481384E-1,1.054557037E0,5.445675659E-1,1.202492920E0
1.648671308E1,-2.589614868E-2,9.562115479E-1,2.486329651E-1,9.883468450E-1
1.649665408E1,1.260379028E-1,8.186476135E-1,-2.995271301E-1,8.807871308E-1
1.650659508E1,5.927673340E-2,5.712121582E-1,-1.159638519E0,1.294047355E0
1.651653608E1,-1.107696533E-1,4.776567078E-1,-1.928290100E0,1.989655386E0
1.652647708E1,-3.158432007E-1,5.385800171E-1,-2.588716736E0,2.662945681E0
1.653641808E1,-3.149450684E-1,6.319857788E-1,-2.822979584E0,2.909950197E0
1.654635908E1,-8.846603394E-2,6.221063232E-1,-2.469115448E0,2.547817421E0
1.655630008E1,2.216889954E-1,4.402345276E-1,-1.499731293E0,1.578653350E0
1.656624108E1,4.917274475E-1,9.699829102E-2,-3.842509460E-1,6.315483676E-1
1.657618208E1,8.515791321E-1,-2.457888794E-1,8.164022827E-1,1.205036049E0
1.658612308E1,1.210682373E0,-4.989125061E-1,1.974693604E0,2.369405057E0
1.659606408E1,1.276994476E0,-6.396199036E-1,2.801723785E0,3.144755107E0
1.660600508E1,8.839118958E-1,-5.969586182E-1,3.199446716E0,3.372553798E0
1.661594608E1,1.957928467E-1,-2.830613708E-1,3.356619873E0,3.374219251E0
1.662588708E1,-7.153623962E-1,3.177891541E-1,3.494782562E0,3.581373823E0
1.663582808E1,-1.544039154E0,1.159039764E0,3.820954285E0,4.281018772E0
