"Time (s)","Acceleration x (m/s^2)","Acceleration y (m/s^2)","Acceleration z (m/s^2)","Absolute acceleration (m/s^2)"
4.734000016E-3,3.505859528E0,4.938530273E0,6.887028351E0,9.171220845E0
1.467599999E-2,3.061284027E0,5.023553467E0,7.110962677E0,9.228940325E0
2.461800000E-2,2.770887909E0,5.120551758E0,7.253316650E0,9.300993094E0
3.456000000E-2,2.592758331E0,5.116210785E0,7.466024323E0,9.414856756E0
4.450200000E-2,2.431393890E0,5.293591919E0,7.651338959E0,9.616484780E0
5.444400001E-2,2.701282654E0,5.350922699E0,8.194409637E0,1.015271644E1
6.438600001E-2,3.385509796E0,5.400319977E0,8.858578491E0,1.091327381E1
7.432800002E-2,3.340752869E0,5.524711304E0,8.844507751E0,1.095026859E1
8.426999999E-2,2.630030823E0,5.586383057E0,8.549171906E0,1.054576114E1
9.421200000E-2,1.875150604E0,5.392985229E0,8.375832367E0,1.013681643E1
1.041540000E-1,5.990542603E-1,4.818629608E0,7.744145966E0,9.140560926E0
1.140960000E-1,5.111869812E-1,4.332440643E0,7.481891327E0,8.660834364E0
1.240380000E-1,1.999242554E0,5.127587128E0,8.084538116E0,9.780024391E0
1.339800000E-1,2.664309540E0,7.136409760E0,8.106542358E0,1.112397944E1
1.439220000E-1,1.956431580E0,6.127807159E0,7.464976501E0,9.854111795E0
1.538640000E-1,1.839973755E0,5.596412201E0,7.459737396E0,9.505420294E0
1.638060000E-1,1.471589813E0,5.135221252E0,7.142846375E0,8.919435420E0
1.737480000E-1,8.270301819E-1,4.888534241E0,6.469247131E0,8.150638281E0
1.836900000E-1,1.098715210E-1,4.718338165E0,6.193520508E0,7.786814694E0
1.936320000E-1,-1.984872437E-1,4.305197296E0,6.618037720E0,7.897629024E0
2.035740000E-1,2.978805542E-2,3.882326660E0,7.771988068E0,8.687758408E0
2.135160000E-1,-2.580633545E-1,3.842958527E0,8.212521973E0,9.070856855E0
2.234580000E-1,-9.481283569E-1,4.037404175E0,7.839347992E0,8.868762980E0
2.334000000E-1,-6.521937561E-1,3.821702728E0,8.684939575E0,9.510990688E0
2.433420000E-1,-9.726773071E-1,3.670217743E0,9.016500092E0,9.783346734E0
2.532840000E-1,-9.638456726E-1,3.304079132E0,9.338181152E0,9.952264296E0
2.632260000E-1,-9.877958679E-1,2.896626434E0,9.494306488E0,9.975371726E0
2.731680000E-1,-1.555116119E0,2.444117432E0,9.023385773E0,9.477003058E0
2.831100000E-1,-2.484234009E0,1.929188232E0,8.173902283E0,8.758188418E0
2.930520000E-1,-3.842808838E0,1.613195343E0,5.938450928E0,7.254983005E0
3.029940000E-1,-4.070635071E0,2.732118530E0,5.777086487E0,7.576890511E0
3.129360000E-1,-2.879711609E0,4.394411774E0,7.147935791E0,8.871109280E0
3.228778333E-1,-1.793719940E0,4.764442291E0,7.661368103E0,9.198581564E0
3.328198333E-1,-1.297651520E0,4.421206055E0,7.461982727E0,8.769957164E0
3.427618333E-1,-9.562115479E-1,4.053720245E0,7.063361664E0,8.199882093E0
3.527038333E-1,-9.910890198E-1,3.416495361E0,6.960226135E0,7.816613452E0
3.626458333E-1,-1.991458740E0,3.752097473E0,6.621181183E0,7.866650089E0
3.725878333E-1,-2.849025421E0,2.850372620E0,5.445076904E0,6.774247738E0
3.825298333E-1,-4.316573639E0,3.886967010E0,4.068090363E0,7.091592185E0
3.924718333E-1,-4.854405212E0,5.271887054E0,2.547702026E0,7.605841748E0
4.024138333E-1,-4.991969147E0,5.157075806E0,9.102571106E-1,7.234898398E0
4.123558333E-1,-5.586532745E0,4.965324554E0,-2.369572449E-1,7.477963946E0
4.222978333E-1,-5.735173645E0,4.653522949E0,1.535806274E-1,7.387224079E0
4.322398333E-1,-5.688470764E0,4.058061218E0,1.647773438E0,7.179256075E0
4.421818334E-1,-4.797673187E0,2.855012970E0,3.476969604E0,6.577087859E0
4.521238333E-1,-3.258274384E0,1.263522491E0,6.182144165E0,7.101531351E0
4.620658333E-1,-4.639003143E0,1.302291870E-1,8.018076324E0,9.264278588E0
4.720078333E-1,-6.536607056E0,6.310876465E-1,7.216343536E0,9.757105998E0
4.819498333E-1,-6.607858887E0,1.555265808E0,6.842720490E0,9.638748596E0
4.918918333E-1,-5.618865509E0,1.954785004E0,6.375092926E0,8.719784621E0
5.018338333E-1,-4.279301147E0,1.356928253E0,5.288502502E0,6.936997284E0
5.117758333E-1,-3.507356415E0,5.890251160E-1,3.506757660E0,4.994581954E0
5.217178333E-1,-3.203488312E0,1.954934692E-1,2.299817505E0,3.948381392E0
5.316598333E-1,-3.269800415E0,-3.128494263E-2,1.841919708E0,3.753031004E0
5.416018333E-1,-3.530707855E0,-1.520837402E-1,1.985022125E0,4.053312258E0
5.515438333E-1,-3.778891754E0,-3.944297791E-1,2.316882019E0,4.450116856E0
5.614858333E-1,-4.041745148E0,-9.916877747E-1,2.397713928E0,4.802934578E0
5.714278333E-1,-4.289779358E0,-1.789528656E0,2.312541046E0,5.191576431E0
5.813698333E-1,-5.333558807E0,-2.498753815E0,2.141147461E0,6.266987524E0
5.913118333E-1,-6.484066315E0,-2.676284637E0,1.778002625E0,7.236498377E0
6.012538333E-1,-7.626490631E0,-2.577190704E0,1.187480621E0,8.137283423E0
6.111958333E-1,-9.273365936E0,-2.475701752E0,6.459068298E-1,9.619855019E0
6.211378333E-1,-1.112606323E1,-2.366279297E0,3.881428528E-1,1.138152958E1
6.310798333E-1,-1.273177414E1,-2.183509369E0,4.495152283E-1,1.292547291E1
6.410218333E-1,-1.404888519E1,-1.996997223E0,1.277293854E0,1.424747882E1
6.509638333E-1,-1.488504639E1,-2.083517303E0,2.458786926E0,1.522994693E1
6.609058333E-1,-1.509146713E1,-2.405198364E0,3.264411621E0,1.562669967E1
6.708478333E-1,-1.505194931E1,-2.852019196E0,3.722159729E0,1.576545796E1
6.807898333E-1,-1.534503983E1,-3.291505280E0,3.712429962E0,1.612719413E1
6.907318333E-1,-1.600816086E1,-3.528462524E0,3.501967621E0,1.676231008E1
7.006738333E-1,-1.612401993E1,-3.573818207E0,3.107388153E0,1.680511994E1
7.106158333E-1,-1.585338272E1,-3.849694519E0,2.596201172E0,1.651938716E1
7.205578333E-1,-1.580458420E1,-4.512216797E0,2.060465240E0,1.656473661E1
7.304998333E-1,-1.596774490E1,-5.241649933E0,1.739382935E0,1.689583453E1
7.404418333E-1,-1.641636200E1,-5.604645081E0,1.650168457E0,1.742504071E1
7.503838333E-1,-1.720477249E1,-5.495522003E0,1.633553009E0,1.813486846E1
7.603258333E-1,-1.810065948E1,-5.065017242E0,1.637893982E0,1.886719296E1
7.702678333E-1,-1.892140274E1,-4.330195312E0,1.728904724E0,1.948741093E1
7.802098333E-1,-1.966116440E1,-3.327580261E0,1.733994141E0,2.001601638E1
7.901518333E-1,-2.006173141E1,-2.314487000E0,1.442400513E0,2.024624500E1
8.000938333E-1,-1.984198837E1,-1.391206970E0,1.188678131E0,1.992618667E1
8.100358333E-1,-1.928454758E1,-6.836283875E-1,6.936575317E-1,1.930912437E1
8.199778333E-1,-1.854658218E1,-3.438349915E-1,-8.741821289E-2,1.854997507E1
8.299198333E-1,-1.773646683E1,-2.098635864E-1,-9.003776550E-1,1.776054555E1
8.398618333E-1,-1.682141968E1,-1.438508606E-1,-1.522933044E0,1.689083118E1
8.498038333E-1,-1.579889603E1,-2.127076721E-1,-1.837279358E0,1.590678961E1
8.597458333E-1,-1.479388596E1,-3.613485718E-1,-1.847458191E0,1.491317324E1
8.696878333E-1,-1.411265259E1,-5.465135193E-1,-1.677711182E0,1.422252983E1
8.796298333E-1,-1.401954620E1,-6.424639893E-1,-1.630110168E0,1.412861263E1
8.895718333E-1,-1.377181137E1,-4.776567078E-1,-1.718276825E0,1.388680739E1
8.995138333E-1,-1.346300354E1,-1.550775146E-1,-1.659149780E0,1.356573962E1
9.094558333E-1,-1.335597610E1,-1.466949463E-2,-1.720821533E0,1.346638555E1
9.193978333E-1,-1.297172516E1,-2.874023438E-2,-1.907633057E0,1.311127543E1
9.293398333E-1,-1.255993149E1,-1.273851013E-1,-2.069296875E0,1.272988985E1
9.392818333E-1,-1.221400085E1,-2.457888794E-1,-2.181413727E0,1.240970567E1
9.492238333E-1,-1.192031158E1,-3.032693481E-1,-2.150577850E0,1.211655007E1
9.591658333E-1,-1.193543015E1,-3.209326172E-1,-1.987117767E0,1.210397156E1
9.691078333E-1,-1.195683563E1,-2.252815247E-1,-1.729204102E0,1.208332806E1
9.790498333E-1,-1.175161240E1,-1.315763855E-1,-1.266516266E0,1.182039634E1
9.889918334E-1,-1.174801987E1,7.828720093E-2,-1.031205597E0,1.179345092E1
9.989338333E-1,-1.180430283E1,4.861889648E-1,-8.702902222E-1,1.184632221E1
1.008875833E0,-1.179651901E1,7.711962891E-1,-7.318281555E-1,1.184433101E1
1.018817833E0,-1.168200714E1,6.741979980E-1,-9.900411987E-1,1.174325404E1
1.028759833E0,-1.144894180E1,2.633024597E-1,-1.317560120E0,1.152751323E1
1.038701833E0,-1.119192627E1,-2.115101624E-1,-1.466799774E0,1.128961699E1
1.048643833E0,-1.078761703E1,-5.797444153E-1,-1.546284485E0,1.091328459E1
1.058585833E0,-1.021805145E1,-9.641450500E-1,-1.724713440E0,1.040734297E1
1.068527833E0,-9.185947723E0,-2.195484467E0,-1.932930450E0,9.640436077E0
1.078469833E0,-9.464967499E0,-2.241588593E0,-2.048041077E0,9.940060434E0
1.088411833E0,-1.057146652E1,-1.625769196E0,-1.903741150E0,1.086385108E1
1.098353833E0,-1.090856552E1,-1.834584961E0,-1.905836792E0,1.122473686E1
1.108295833E0,-1.129925308E1,-2.241887970E0,-2.209255829E0,1.172944983E1
1.118237833E0,-1.215472412E1,-2.381397858E0,-2.283052368E0,1.259447110E1
1.128179833E0,-1.229363525E1,-2.609822845E0,-2.359842682E0,1.278723975E1
1.138121833E0,-1.169996979E1,-3.309168549E0,-2.367776184E0,1.238734247E1
1.148063833E0,-1.116423386E1,-3.779939575E0,-2.367476807E0,1.202218812E1
1.158005833E0,-1.087862778E1,-3.895948334E0,-2.157014465E0,1.175481464E1
1.167947833E0,-1.071037766E1,-4.104165344E0,-1.800006866E0,1.161018464E1
1.177889833E0,-1.076187057E1,-4.466262360E0,-1.479972382E0,1.174545342E1
1.187831833E0,-1.099418747E1,-4.816833344E0,-1.339115295E0,1.207755237E1
1.197773833E0,-1.122605530E1,-5.109175415E0,-1.140328674E0,1.238661941E1
1.207715833E0,-1.146600632E1,-5.334157562E0,-1.055455170E0,1.269001668E1
1.217657833E0,-1.163560364E1,-5.488037567E0,-1.044677582E0,1.290725298E1
1.227599833E0,-1.148561554E1,-5.662125549E0,-1.076710968E0,1.285061619E1
1.237541833E0,-1.126033401E1,-5.942342834E0,-1.220861206E0,1.279050674E1
1.247483833E0,-1.092218719E1,-6.291716309E0,-1.401385803E0,1.268241891E1
1.257425833E0,-1.051683014E1,-6.539600830E0,-1.661993866E0,1.249529187E1
1.267367833E0,-1.023900787E1,-6.662794647E0,-1.708696747E0,1.233490005E1
1.277309833E0,-1.000324814E1,-6.769522705E0,-1.601369934E0,1.218424379E1
1.287251833E0,-9.982890472E0,-6.919810181E0,-1.538800049E0,1.224376497E1
1.297193833E0,-1.028406418E1,-7.176676025E0,-1.519340515E0,1.263230186E1
1.307135833E0,-1.082129700E1,-7.422315216E0,-1.588945770E0,1.321801727E1
1.317077833E0,-1.114148117E1,-7.535180511E0,-1.609602814E0,1.354630463E1
1.327019583E0,-1.109118576E1,-7.625891876E0,-1.637594604E0,1.355914247E1
1.336961583E0,-1.060140427E1,-7.639962616E0,-1.622026978E0,1.316775504E1
1.346903583E0,-9.768236847E0,-7.474257202E0,-1.445244598E0,1.238433300E1
1.356845583E0,-8.696914673E0,-7.134463806E0,-1.140628052E0,1.130654372E1
1.366787583E0,-7.595205688E0,-6.575526123E0,-7.590715027E-1,1.007476465E1
1.376729583E0,-6.760391693E0,-6.011199646E0,-5.346881104E-1,9.062191148E0
1.386671583E0,-6.371051331E0,-5.700894928E0,-4.575984192E-1,8.561535747E0
1.396613583E0,-6.136788483E0,-5.834117889E0,-5.806425476E-1,8.487299346E0
1.406555583E0,-5.833968201E0,-6.160289612E0,-8.707392883E-1,8.528923729E0
1.416497583E0,-5.489384766E0,-6.471941528E0,-1.366358643E0,8.595714525E0
1.426439583E0,-5.137017517E0,-6.919510803E0,-2.005978546E0,8.848306542E0
1.436381583E0,-4.793032837E0,-7.417824554E0,-2.579136658E0,9.200501660E0
1.446323583E0,-4.495002594E0,-7.877967682E0,-2.872676239E0,9.514183722E0
1.456265583E0,-4.165537720E0,-8.334218903E0,-2.969375153E0,9.778962011E0
1.466207583E0,-3.855981445E0,-8.721763000E0,-3.082539825E0,1.002196560E1
1.476149583E0,-3.538192291E0,-9.058412933E0,-3.179837494E0,1.023156958E1
1.486091583E0,-3.267405396E0,-9.300309906E0,-3.225342865E0,1.037181464E1
1.496033583E0,-2.996019745E0,-9.493707733E0,-3.176544342E0,1.044973946E1
1.505975583E0,-2.638862457E0,-9.576485596E0,-3.187770996E0,1.043238014E1
1.515917583E0,-2.434088287E0,-9.678423615E0,-3.232527924E0,1.049027675E1
1.525859583E0,-2.564916229E0,-9.717342682E0,-3.284918976E0,1.057337395E1
1.535801583E0,-2.954256592E0,-9.470356293E0,-3.329975281E0,1.046441664E1
1.545743583E0,-3.627257080E0,-8.972940674E0,-3.381019135E0,1.025192414E1
1.555685583E0,-4.159550171E0,-8.402776337E0,-3.415148163E0,9.978564264E0
1.565627583E0,-4.681963806E0,-7.943082275E0,-3.520828400E0,9.869628855E0
1.575569583E0,-5.304369507E0,-7.591762848E0,-3.739822998E0,9.987866392E0
1.585511583E0,-5.897585907E0,-7.352709961E0,-3.971840515E0,1.022836157E1
1.595453583E0,-6.443800049E0,-7.196434937E0,-4.131558380E0,1.050623670E1
1.605395583E0,-6.883884888E0,-7.039112091E0,-4.162693634E0,1.068948027E1
1.615337583E0,-7.484286346E0,-6.954088898E0,-4.105362854E0,1.101035416E1
1.625279583E0,-8.356672211E0,-6.788682861E0,-4.118236084E0,1.152736110E1
1.635221583E0,-9.029972076E0,-6.456373901E0,-4.190236359E0,1.186521135E1
1.645163583E0,-9.342372437E0,-6.120173035E0,-4.153263245E0,1.191578937E1
1.655105583E0,-9.630822601E0,-5.900729370E0,-4.095633087E0,1.201438977E1
1.665047583E0,-1.001103195E1,-5.693410492E0,-4.074227600E0,1.221617838E1
1.674989583E0,-1.050275940E1,-5.466183014E0,-4.130211182E0,1.253976699E1
1.684931583E0,-1.103415436E1,-5.131179657E0,-3.957021332E0,1.279607693E1
1.694873583E0,-1.167302582E1,-4.776417389E0,-3.795357513E0,1.317112119E1
1.704815583E0,-1.241009308E1,-4.391717377E0,-3.783681793E0,1.369722014E1
1.714757583E0,-1.293430298E1,-3.993395691E0,-3.831282806E0,1.406848004E1
1.724699583E0,-1.304686890E1,-3.689078522E0,-3.682192841E0,1.404950648E1
1.734641583E0,-1.300091446E1,-3.397634583E0,-3.326981506E0,1.384328370E1
1.744583583E0,-1.289822800E1,-3.159479828E0,-2.775228882E0,1.356644735E1
1.754525583E0,-1.279539185E1,-3.151097260E0,-2.165995789E0,1.335451250E1
1.764467583E0,-1.268716690E1,-3.238365784E0,-1.616787872E0,1.319337788E1
1.774409583E0,-1.271231461E1,-3.263363800E0,-1.160686340E0,1.317572308E1
1.784351583E0,-1.305465271E1,-3.198249207E0,-1.024020538E0,1.347966518E1
1.794293583E0,-1.357422226E1,-3.091521149E0,-1.053509216E0,1.396162221E1
1.804235583E0,-1.383138748E1,-2.912044373E0,-9.759704590E-1,1.416826738E1
1.814177583E0,-1.373902954E1,-2.772534485E0,-7.601193237E-1,1.403658297E1
1.824119583E0,-1.365685043E1,-2.738555145E0,-6.131250000E-1,1.394220823E1
1.834061583E0,-1.400457733E1,-2.932402039E0,-7.051835632E-1,1.432565712E1
1.844002583E0,-1.448148560E1,-3.241509247E0,-9.303153992E-1,1.486897085E1
1.853945583E0,-1.479897537E1,-3.494034119E0,-1.077160034E0,1.524395684E1
1.863886583E0,-1.507949203E1,-3.639681244E0,-1.108444977E0,1.555207413E1
1.873828583E0,-1.508488083E1,-3.541186066E0,-1.015787659E0,1.552821474E1
1.883770583E0,-1.486648499E1,-3.228935394E0,-8.792715454E-1,1.523848805E1
1.893712583E0,-1.458551926E1,-2.729573822E0,-7.170089722E-1,1.485604413E1
1.903654583E0,-1.423330170E1,-2.224823456E0,-6.565347290E-1,1.442108715E1
1.913596583E0,-1.389769958E1,-1.801653442E0,-5.495072937E-1,1.402476264E1
1.923538583E0,-1.359218491E1,-1.549577637E0,-4.093986511E-1,1.368635410E1
1.933480583E0,-1.341615097E1,-1.506167908E0,-4.556524658E-1,1.350811859E1
1.943422583E0,-1.311303131E1,-1.547032928E0,-5.087919617E-1,1.321377199E1
1.953364583E0,-1.233749405E1,-1.595232697E0,-3.411405945E-1,1.244487459E1
1.963306583E0,-1.153037247E1,-1.740879822E0,-3.064128113E-1,1.166507782E1
1.973248583E0,-1.089479416E1,-2.044747925E0,-4.900808716E-1,1.109584215E1
1.983190583E0,-1.031564850E1,-2.292183380E0,-6.189628601E-1,1.058535893E1
1.993132583E0,-9.831555176E0,-2.418820038E0,-6.746470642E-1,1.014718267E1
2.003074583E0,-9.582323456E0,-2.519710236E0,-7.926017761E-1,9.939722333E0
2.013016583E0,-9.417067108E0,-2.628683624E0,-8.201445007E-1,9.811410068E0
2.022958583E0,-9.315129089E0,-2.716101837E0,-7.954458618E-1,9.735582841E0
2.032900583E0,-9.281000061E0,-2.746039581E0,-7.879614258E-1,9.710745529E0
2.042842583E0,-9.228609009E0,-2.766996002E0,-7.683522034E-1,9.665084388E0
2.052784583E0,-9.246272278E0,-2.812052307E0,-6.727011108E-1,9.687812756E0
2.062726583E0,-9.337881775E0,-2.818488922E0,-6.724017334E-1,9.777118182E0
2.072668583E0,-9.367969208E0,-2.797382812E0,-7.405101013E-1,9.804720949E0
2.082610583E0,-9.440119171E0,-2.777623901E0,-6.812333679E-1,9.863829044E0
2.092552583E0,-9.569899292E0,-2.739902344E0,-6.827302551E-1,9.977783216E0
2.102494583E0,-9.625583496E0,-2.751128998E0,-7.360194397E-1,1.003804229E1
2.112436583E0,-9.632169800E0,-2.797682190E0,-7.771838379E-1,1.006030494E1
2.122378583E0,-9.635612640E0,-2.887794800E0,-8.313711548E-1,1.009334274E1
2.132320583E0,-9.658065948E0,-3.002306671E0,-9.274713135E-1,1.015639140E1
2.142262583E0,-9.682914276E0,-3.070115662E0,-1.091979218E0,1.021649929E1
2.152204583E0,-9.797575836E0,-3.179538116E0,-1.313967590E0,1.038404862E1
2.162146583E0,-9.839039612E0,-3.351081390E0,-1.420396271E0,1.049066121E1
2.172088583E0,-9.787397003E0,-3.575315094E0,-1.385219421E0,1.051165310E1
2.182030583E0,-9.740843811E0,-3.853736115E0,-1.327738953E0,1.055927133E1
2.191972583E0,-9.716294861E0,-4.154460754E0,-1.241218872E0,1.063985687E1
2.201914583E0,-9.619895325E0,-4.475393372E0,-1.235231323E0,1.068163510E1
2.211856583E0,-9.443562012E0,-4.812192993E0,-1.163081360E0,1.066258989E1
2.221798583E0,-9.206305389E0,-5.153932343E0,-1.051862640E0,1.060308882E1
2.231740583E0,-9.077722778E0,-5.528603210E0,-9.090596008E-1,1.066756269E1
2.241682583E0,-8.991502075E0,-5.941295013E0,-8.193960571E-1,1.080821474E1
2.251624583E0,-8.878636780E0,-6.302942963E0,-7.217990112E-1,1.091229925E1
2.261566583E0,-8.799301758E0,-6.581663361E0,-6.259982300E-1,1.100626539E1
2.271508583E0,-9.036109314E0,-6.902446289E0,-6.191125488E-1,1.138763964E1
2.281450583E0,-9.492959290E0,-7.275470581E0,-7.411088562E-1,1.198323790E1
2.291392583E0,-9.831405487E0,-7.472311249E0,-1.025218048E0,1.239124858E1
2.301334583E0,-9.990823975E0,-7.400610352E0,-1.314266968E0,1.250251554E1
2.311276583E0,-9.760153656E0,-7.063361664E0,-1.335672455E0,1.212170361E1
2.321218583E0,-9.305399323E0,-6.679559784E0,-1.225052490E0,1.151988407E1
2.331160708E0,-9.048234100E0,-6.510710907E0,-1.036594391E0,1.119528583E1
2.341102708E0,-8.848100281E0,-6.533164215E0,-7.695497131E-1,1.102557572E1
2.351044708E0,-8.852441254E0,-6.639143829E0,-5.468128967E-1,1.107894179E1
2.360986708E0,-9.041348419E0,-6.887776794E0,-3.793112183E-1,1.137239321E1
2.370928708E0,-9.351204071E0,-7.236401825E0,-2.662962341E-1,1.182714854E1
2.380870708E0,-9.651629333E0,-7.733218689E0,-3.734733582E-1,1.237320098E1
2.390812708E0,-9.667346649E0,-8.175698547E0,-4.866380310E-1,1.267029812E1
2.400754708E0,-9.184750214E0,-8.164471893E0,-4.243675232E-1,1.229627283E1
2.410696708E0,-8.490942993E0,-7.899223480E0,-2.384541321E-1,1.159959934E1
2.420638708E0,-7.941735077E0,-7.548053741E0,-6.900650024E-2,1.095668897E1
2.430580708E0,-7.473209381E0,-7.288792877E0,9.984237671E-2,1.043960385E1
2.440521708E0,-6.896159363E0,-7.231462097E0,2.773731995E-1,9.996399047E0
2.450463708E0,-6.394103394E0,-7.366930389E0,2.649490356E-1,9.758402511E0
2.460405708E0,-6.093827820E0,-7.552245026E0,-8.083190918E-3,9.704185064E0
2.470347708E0,-5.900579681E0,-7.655081177E0,-5.054988098E-1,9.678462556E0
2.480289708E0,-5.699847107E0,-7.626790009E0,-1.060993652E0,9.580286551E0
2.490231708E0,-5.444328461E0,-7.492369537E0,-1.592987366E0,9.397548745E0
2.500173708E0,-5.129982147E0,-7.358098755E0,-2.020198975E0,9.194538488E0
2.510115708E0,-4.744084625E0,-7.287745056E0,-2.357447662E0,9.009723992E0
2.520057708E0,-4.644092560E0,-7.256609802E0,-2.593955841E0,8.997476781E0
2.529999708E0,-4.744533691E0,-7.146588593E0,-2.807711334E0,9.025938810E0
2.539941708E0,-4.752467194E0,-6.950196991E0,-3.074157257E0,8.963349010E0
2.549883708E0,-4.780758362E0,-6.703509979E0,-3.412753143E0,8.912888453E0
2.559825708E0,-4.883444824E0,-6.384822693E0,-3.726500702E0,8.860067813E0
2.569767708E0,-4.817881165E0,-6.009104004E0,-4.017944641E0,8.687070219E0
2.579709708E0,-4.628973999E0,-5.660329285E0,-4.172273712E0,8.418705116E0
2.589651708E0,-4.633764038E0,-5.461243286E0,-4.171525269E0,8.288460078E0
2.599593708E0,-4.896916809E0,-5.320086823E0,-4.134552155E0,8.329324075E0
2.609535708E0,-5.369035034E0,-5.135520630E0,-3.999981995E0,8.438007187E0
2.619477708E0,-5.916895752E0,-4.938679962E0,-3.833528137E0,8.607912237E0
2.629419708E0,-6.486760712E0,-4.765639801E0,-3.710633698E0,8.863305799E0
2.639361708E0,-7.220983887E0,-4.674030304E0,-3.557053070E0,9.308157396E0
2.649303708E0,-7.890840912E0,-4.501289520E0,-3.675456848E0,9.799793910E0
2.659245708E0,-8.436156921E0,-4.265230408E0,-4.010160828E0,1.026851128E1
2.669187708E0,-8.927734680E0,-4.037853241E0,-4.254303131E0,1.068212528E1
2.679129708E0,-9.286987610E0,-3.818708954E0,-4.339326324E0,1.093894099E1
2.689071708E0,-9.715696106E0,-3.669768677E0,-4.205953674E0,1.120499885E1
2.699013708E0,-1.021386017E1,-3.515289917E0,-3.889960785E0,1.148094063E1
2.708955708E0,-1.053928345E1,-3.408412170E0,-3.415746918E0,1.159142339E1
2.718897708E0,-1.097592545E1,-3.360960846E0,-2.762205963E0,1.180664131E1
2.728839708E0,-1.149324966E1,-3.312312012E0,-2.195933533E0,1.216093429E1
2.738781708E0,-1.185998703E1,-3.161425781E0,-1.858834534E0,1.241407150E1
2.748723708E0,-1.204515198E1,-2.955753479E0,-1.557211761E0,1.249988293E1
2.758665708E0,-1.218810471E1,-2.740201721E0,-1.349892883E0,1.256506317E1
2.768607708E0,-1.220337296E1,-2.611170044E0,-1.281185760E0,1.254519659E1
2.778549708E0,-1.206191711E1,-2.700833588E0,-1.169817352E0,1.241582938E1
2.788491708E0,-1.187839874E1,-2.940634918E0,-9.327104187E-1,1.227247486E1
2.798433708E0,-1.174876831E1,-3.276536407E0,-7.206015015E-1,1.221836790E1
2.808375708E0,-1.178888489E1,-3.620221710E0,-4.954696655E-1,1.234217575E1
2.818317708E0,-1.195548843E1,-3.858376465E0,-3.314108276E-1,1.256704443E1
2.828259708E0,-1.215457443E1,-3.933669891E0,-1.225950623E-1,1.277585488E1
2.838201708E0,-1.251771927E1,-3.942052460E0,-1.137634277E-2,1.312376481E1
2.848143708E0,-1.299163376E1,-3.956721954E0,9.580078125E-3,1.358080587E1
2.858085708E0,-1.360281281E1,-4.047433319E0,-1.077758789E-1,1.419259836E1
2.868027708E0,-1.420740555E1,-4.120481415E0,-2.294728088E-1,1.479464083E1
2.877969708E0,-1.450393890E1,-4.089346161E0,-1.176553345E-1,1.506986525E1
2.887910708E0,-1.454869583E1,-3.998335419E0,5.942642212E-2,1.508823277E1
2.897852708E0,-1.458417206E1,-3.753744049E0,1.230441284E-1,1.506000693E1
2.907794708E0,-1.462683334E1,-3.275787964E0,1.661544800E-2,1.498917331E1
2.917736708E0,-1.456411377E1,-2.563119965E0,-2.061213684E-1,1.478937050E1
2.927678708E0,-1.446442108E1,-1.801803131E0,-4.751119995E-1,1.458395362E1
2.937620708E0,-1.447430054E1,-1.229094086E0,-8.080197144E-1,1.454884683E1
2.947562708E0,-1.457713669E1,-8.936416626E-1,-1.163231049E0,1.465075479E1
2.957504708E0,-1.448567688E1,-7.455995178E-1,-1.325493622E0,1.456529048E1
2.967446708E0,-1.420815399E1,-7.620652771E-1,-1.312021637E0,1.428893922E1
2.977388708E0,-1.369606888E1,-8.816665649E-1,-1.280287628E0,1.378400432E1
2.987330708E0,-1.301049454E1,-1.089135132E0,-1.406325531E0,1.313152447E1
2.997272708E0,-1.230186813E1,-1.317410431E0,-1.563498688E0,1.247060776E1
3.007214708E0,-1.168904251E1,-1.547931061E0,-1.735491028E0,1.191812630E1
3.017156708E0,-1.113414642E1,-1.803300018E0,-1.853146362E0,1.143045314E1
3.027098708E0,-1.065199905E1,-2.104324036E0,-1.880838776E0,1.101956524E1
3.037040708E0,-1.022852966E1,-2.377805328E0,-1.758393402E0,1.064747503E1
3.046982708E0,-9.750274200E0,-2.594853973E0,-1.541644135E0,1.020675172E1
3.056924708E0,-9.352251892E0,-2.763403473E0,-1.302740936E0,9.838604990E0
3.066866708E0,-9.016350403E0,-2.764451294E0,-1.038540344E0,9.487640992E0
3.076808708E0,-8.785380707E0,-2.734214172E0,-8.657995605E-1,9.241669231E0
3.086750708E0,-8.604407043E0,-2.707120514E0,-8.002359009E-1,9.055644623E0
3.096692708E0,-8.444838867E0,-2.652035065E0,-7.984396362E-1,8.887412409E0
3.106634708E0,-8.330626373E0,-2.672692108E0,-8.551716614E-1,8.790559564E0
3.116576708E0,-8.285719757E0,-2.757715302E0,-9.015751648E-1,8.779008108E0
3.126518708E0,-8.285121002E0,-2.878065033E0,-8.315208435E-1,8.810103023E0
3.136460708E0,-8.282576294E0,-3.069367218E0,-6.902146912E-1,8.859936879E0
3.146402708E0,-8.201145630E0,-3.288661194E0,-6.370751953E-1,8.858890839E0
3.156344708E0,-8.031398621E0,-3.515439606E0,-5.445675659E-1,8.783975937E0
3.166286708E0,-8.012537842E0,-3.780837708E0,-4.984634399E-1,8.873779479E0
3.176228708E0,-8.023315430E0,-4.061953125E0,-5.010081482E-1,9.006889743E0
3.186170708E0,-8.052504730E0,-4.323609009E0,-5.851332092E-1,9.158537447E0
3.196112708E0,-8.079299011E0,-4.545747070E0,-6.563850403E-1,9.293531636E0
3.206054708E0,-8.073760529E0,-4.757257233E0,-7.315287781E-1,9.399587215E0
3.215996708E0,-8.094417572E0,-4.909490662E0,-7.238946533E-1,9.494562542E0
3.225938708E0,-8.274792480E0,-5.008734283E0,-5.839356995E-1,9.690231711E0
3.235879708E0,-8.616531830E0,-5.212909698E0,-4.842430115E-1,1.008233800E1
3.245821708E0,-8.893306274E0,-5.444478149E0,-3.091072083E-1,1.043210363E1
3.255763708E0,-9.102720795E0,-5.633834381E0,-1.643582153E-1,1.070638264E1
3.265705708E0,-9.293274536E0,-5.842799835E0,-9.864486694E-2,1.097784097E1
3.275647708E0,-9.480535126E0,-6.137536926E0,1.047821045E-3,1.129379949E1
3.285589708E0,-9.724976807E0,-6.419101410E0,6.466552734E-2,1.165264856E1
3.295531708E0,-1.003453308E1,-6.700216827E0,5.134323120E-2,1.206596021E1
3.305473708E0,-1.024559418E1,-6.944359131E0,-1.106199646E-1,1.237774457E1
3.315415708E0,-1.025726990E1,-7.083869019E0,-3.671864319E-1,1.247107100E1
3.325357375E0,-1.008976822E1,-7.164700928E0,-6.662644958E-1,1.239275072E1
3.335299375E0,-9.847721558E0,-7.153623962E0,-7.861651611E-1,1.219713127E1
3.345241375E0,-9.596543884E0,-7.282505951E0,-7.852670288E-1,1.207249733E1
3.355183375E0,-9.549691315E0,-7.674840088E0,-7.569758606E-1,1.227488440E1
3.365125375E0,-9.742191010E0,-8.252788239E0,-5.730084229E-1,1.278073308E1
3.375067375E0,-1.002360580E1,-8.947194214E0,-4.296066284E-1,1.344282409E1
3.385009375E0,-1.001222946E1,-9.442963257E0,-2.884501648E-1,1.376580900E1
3.394951375E0,-9.431437225E0,-9.412726135E0,-1.267863464E-1,1.332544544E1
3.404893375E0,-8.606652374E0,-8.977281647E0,6.391708374E-2,1.243664490E1
3.414835375E0,-7.820636902E0,-8.380472717E0,2.049238586E-1,1.146458365E1
3.424777375E0,-7.006180573E0,-7.787106628E0,2.923420715E-1,1.047907724E1
3.434719375E0,-6.331982574E0,-7.343578949E0,2.348616028E-1,9.699346116E0
3.444661375E0,-5.871240692E0,-7.005581818E0,8.187973022E-2,9.140916155E0
3.454603375E0,-5.535488892E0,-6.851103058E0,-3.008743286E-2,8.807959788E0
3.464545375E0,-5.457201691E0,-6.808292084E0,-2.125579834E-1,8.728062344E0
3.474487375E0,-5.527705078E0,-6.822662201E0,-6.665638733E-1,8.806165473E0
3.484429375E0,-5.540129242E0,-6.813381500E0,-1.169218597E0,8.859022046E0
3.494371375E0,-5.481900330E0,-6.878346405E0,-1.881736908E0,8.994654762E0
3.504313375E0,-5.476661224E0,-7.044949951E0,-2.816093903E0,9.357110817E0
3.514255375E0,-5.429509277E0,-7.130571899E0,-3.695964203E0,9.694574668E0
3.524197375E0,-5.438789978E0,-7.028783569E0,-4.447700958E0,9.938122494E0
3.534139375E0,-5.362149353E0,-6.767427063E0,-4.998106384E0,9.976561640E0
3.544081375E0,-5.254523163E0,-6.402485962E0,-5.217400360E0,9.788927759E0
3.554022375E0,-5.190905457E0,-5.976621552E0,-5.171745300E0,9.455815887E0
3.563964375E0,-5.211263123E0,-5.523214417E0,-4.940476227E0,9.059330338E0
3.573906375E0,-5.350623322E0,-5.098098450E0,-4.608915710E0,8.709872660E0
3.583848375E0,-5.593717804E0,-4.728816376E0,-4.237388306E0,8.462082654E0
3.593790375E0,-6.049669647E0,-4.417014771E0,-3.966152344E0,8.475782367E0
3.603732375E0,-6.470893707E0,-4.084705811E0,-3.987557831E0,8.628899373E0
3.613674375E0,-6.786287842E0,-3.760629730E0,-4.098776550E0,8.774736911E0
3.623616375E0,-7.208410034E0,-3.547622681E0,-4.137096863E0,9.036723541E0
3.633558375E0,-7.371870117E0,-3.341201935E0,-4.120631104E0,9.082273949E0
3.643500375E0,-7.426057434E0,-3.214864655E0,-4.047133942E0,9.047705615E0
3.653442375E0,-7.525450745E0,-3.284918976E0,-3.669020233E0,8.993598338E0
3.663384375E0,-7.676336975E0,-3.524570618E0,-3.201542358E0,9.033195496E0
3.673326375E0,-7.913892975E0,-3.800895996E0,-2.809058533E0,9.217772086E0
3.683268375E0,-8.300838318E0,-4.021986237E0,-2.457290039E0,9.545604455E0
3.693210375E0,-8.768316193E0,-4.117787018E0,-2.188898163E0,9.931304745E0
3.703152375E0,-9.372609558E0,-4.122577057E0,-1.963916016E0,1.042585333E1
3.713094375E0,-1.000384689E1,-4.045187988E0,-1.887574768E0,1.095460803E1
3.723036375E0,-1.043779449E1,-3.839665375E0,-1.763931885E0,1.126064118E1
3.732978375E0,-1.079779587E1,-3.599115601E0,-1.468146973E0,1.147612671E1
3.742920375E0,-1.107292374E1,-3.298091583E0,-1.179547119E0,1.161371515E1
3.752862375E0,-1.128338608E1,-3.054997101E0,-9.647438049E-1,1.172938785E1
3.762804375E0,-1.145253433E1,-3.009042664E0,-8.075706482E-1,1.186874259E1
3.772746375E0,-1.161509628E1,-3.136876831E0,-6.782395935E-1,1.205033057E1
3.782688375E0,-1.174442734E1,-3.350632324E0,-5.358856201E-1,1.222478973E1
3.792630375E0,-1.177571228E1,-3.543581085E0,-3.872447205E-1,1.230342737E1
3.802572375E0,-1.192135941E1,-3.644770660E0,-3.450325012E-1,1.247085445E1
3.812514375E0,-1.216325638E1,-3.639830933E0,-4.194277954E-1,1.270311358E1
3.822456375E0,-1.258028915E1,-3.559897156E0,-5.246589661E-1,1.308479308E1
3.832398375E0,-1.304432419E1,-3.476819916E0,-6.882687378E-1,1.351726245E1
3.842340375E0,-1.372540787E1,-3.648213501E0,-8.735833740E-1,1.422882394E1
3.852282375E0,-1.455782684E1,-4.099824371E0,-1.006207581E0,1.515755046E1
3.862223375E0,-1.524474838E1,-4.575385437E0,-1.050066376E0,1.595114869E1
3.872165375E0,-1.564875824E1,-4.877756653E0,-9.148974609E-1,1.641685664E1
3.882107375E0,-1.588137451E1,-4.811444550E0,-5.780978394E-1,1.660428415E1
3.892049375E0,-1.599783234E1,-4.316274261E0,-2.121089172E-1,1.657123572E1
3.901991375E0,-1.583976105E1,-3.535946960E0,-7.319778442E-2,1.622979694E1
3.911933375E0,-1.568992264E1,-2.740800476E0,-1.883084106E-1,1.592862579E1
3.921875375E0,-1.572315353E1,-2.068847809E0,-6.282435608E-1,1.587111774E1
3.931817375E0,-1.559337341E1,-1.512903900E0,-1.110839996E0,1.570592685E1
3.941759375E0,-1.521720566E1,-1.106798401E0,-1.301094360E0,1.531277889E1
3.951701375E0,-1.465467545E1,-1.002764740E0,-1.268013153E0,1.474357171E1
3.961643375E0,-1.399305130E1,-1.179247742E0,-1.245559845E0,1.409778455E1
3.971585375E0,-1.314132248E1,-1.532064056E0,-1.228345642E0,1.328722732E1
3.981527375E0,-1.213736023E1,-1.894310760E0,-1.227447510E0,1.234546694E1
3.991469375E0,-1.120030884E1,-2.174378357E0,-1.241518250E0,1.147676814E1
4.001411375E0,-1.033885025E1,-2.450404358E0,-1.241218872E0,1.069751982E1
4.011353375E0,-9.658215637E0,-2.652933197E0,-1.138233032E0,1.008041459E1
4.021295375E0,-9.082063751E0,-2.747686157E0,-9.139993286E-1,9.532526211E0
4.031237375E0,-8.552764435E0,-2.766996002E0,-6.863227844E-1,9.015380487E0
4.041179375E0,-8.145611115E0,-2.749781799E0,-5.081932068E-1,8.612232040E0
4.051121375E0,-7.839797058E0,-2.702929230E0,-4.013154602E-1,8.302367038E0
4.061063375E0,-7.572752380E0,-2.566113739E0,-3.647914124E-1,8.004035926E0
4.071005375E0,-7.461533661E0,-2.408790894E0,-4.011657715E-1,7.850967591E0
4.080947375E0,-7.490273895E0,-2.346819763E0,-5.986051941E-1,7.872108625E0
4.090889375E0,-7.568261719E0,-2.427352295E0,-8.475375366E-1,7.993056017E0
4.100831375E0,-7.575147400E0,-2.569406891E0,-1.056353302E0,8.068493800E0
4.110773375E0,-7.548951874E0,-2.736908569E0,-1.111588440E0,8.106353790E0
4.120715375E0,-7.478149109E0,-2.962190094E0,-1.066083069E0,8.113804124E0
4.130656375E0,-7.478149109E0,-3.285068665E0,-1.067130890E0,8.237302869E0
4.140598375E0,-7.543862457E0,-3.603606262E0,-9.434880066E-1,8.413442131E0
4.150540375E0,-7.559579773E0,-3.895948334E0,-6.890171814E-1,8.532315304E0
4.160482375E0,-7.629783783E0,-4.181255035E0,-5.138813782E-1,8.715536032E0
4.170424375E0,-7.821984100E0,-4.393663330E0,-3.661386108E-1,8.978962646E0
4.180366375E0,-8.002508698E0,-4.483626251E0,-2.493814087E-1,9.176341368E0
4.190308375E0,-8.373886414E0,-4.567302246E0,-2.450404358E-1,9.541607217E0
4.200250375E0,-8.739276581E0,-4.598437500E0,-3.694317627E-1,9.882158794E0
4.210192375E0,-8.824299774E0,-4.496050415E0,-5.117857361E-1,9.916887641E0
4.220134375E0,-8.802894287E0,-4.420158234E0,-6.791377258E-1,9.873701165E0
4.230076375E0,-8.683442688E0,-4.364623718E0,-7.292834473E-1,9.745972064E0
4.240018375E0,-8.543483734E0,-4.336781616E0,-6.960525513E-1,9.606418597E0
4.249960375E0,-8.533753967E0,-4.419409790E0,-6.620732117E-1,9.632989183E0
4.259902375E0,-8.641829224E0,-4.640649719E0,-5.764512634E-1,9.825942103E0
4.269844375E0,-8.838071136E0,-4.924609222E0,-4.743635559E-1,1.012858816E1
4.279786375E0,-9.111702118E0,-5.232518921E0,-4.444258118E-1,1.051664795E1
4.289728375E0,-9.402547302E0,-5.601950684E0,-6.014492798E-1,1.096136344E1
4.299670375E0,-9.516909485E0,-5.968089294E0,-8.023315430E-1,1.126203320E1
4.309612375E0,-9.468859406E0,-6.193071442E0,-8.291258240E-1,1.134464111E1
4.319554375E0,-9.335337067E0,-6.321204987E0,-6.893165588E-1,1.129518959E1
4.329496958E0,-8.998238068E0,-6.273753662E0,-4.565505981E-1,1.097892125E1
4.339438958E0,-8.635691986E0,-6.165977783E0,-1.761836243E-1,1.061251614E1
4.349380958E0,-8.565937042E0,-6.278843079E0,7.484436035E-4,1.062069435E1
4.359322958E0,-8.851992188E0,-6.666686554E0,1.128652954E-1,1.108220257E1
4.369263958E0,-9.149124298E0,-7.061116333E0,2.859054565E-2,1.155710417E1
4.379205958E0,-9.395362244E0,-7.393724670E0,-4.291575623E-1,1.196345153E1
4.389147958E0,-9.604627075E0,-7.760462036E0,-9.895921326E-1,1.238761175E1
4.399089958E0,-9.611213379E0,-8.075856171E0,-1.433269501E0,1.263523395E1
4.409031958E0,-9.295669556E0,-8.006250916E0,-1.605261841E0,1.237280857E1
4.418973958E0,-8.456514587E0,-7.386689301E0,-1.438807983E0,1.132015840E1
4.428915958E0,-7.601342926E0,-6.631809082E0,-9.791139221E-1,1.013508609E1
4.438857958E0,-7.179220734E0,-6.168522491E0,-4.710704041E-1,9.477013633E0
4.448799958E0,-7.090605011E0,-5.811365204E0,-1.044827271E-1,9.168400165E0
4.458741958E0,-7.164401550E0,-5.598507843E0,6.541397095E-2,9.092646404E0
4.468683958E0,-7.179220734E0,-5.550158386E0,1.187031555E-1,9.075216741E0
4.478625958E0,-7.268135834E0,-5.571114807E0,-2.799179077E-2,9.157723638E0
4.488567958E0,-7.241042175E0,-5.538183289E0,-3.930825806E-1,9.124619435E0
4.498509958E0,-6.949149170E0,-5.616470490E0,-1.088686066E0,9.001147277E0
4.508451958E0,-6.667434998E0,-5.786217499E0,-1.921703796E0,9.034818641E0
4.518393958E0,-6.472240906E0,-5.828280029E0,-2.571352844E0,9.081332826E0
4.528335958E0,-6.382577362E0,-5.805677032E0,-3.133883057E0,9.179564401E0
4.538277958E0,-6.404132538E0,-5.862259369E0,-3.512745209E0,9.365808954E0
4.548219958E0,-6.429579620E0,-5.939049683E0,-3.656446381E0,9.485852906E0
4.558161958E0,-6.455326080E0,-5.938001862E0,-3.520978088E0,9.451369616E0
4.568103958E0,-6.428531799E0,-5.855972443E0,-3.187172241E0,9.261560411E0
4.578045958E0,-6.490502930E0,-5.676795044E0,-2.777324524E0,9.059037574E0
4.587987958E0,-6.448590088E0,-5.408552856E0,-2.581232300E0,8.803381073E0
4.597929958E0,-6.536906433E0,-5.126688995E0,-2.620301056E0,8.710916335E0
4.607871958E0,-6.859934692E0,-4.825814667E0,-2.792293396E0,8.839914795E0
4.617812958E0,-6.930288391E0,-4.390519867E0,-3.020718384E0,8.742442533E0
4.627754958E0,-7.162006531E0,-3.933370514E0,-3.308120728E0,8.815293750E0
4.637696958E0,-7.464826813E0,-3.536246338E0,-3.644920349E0,9.028517146E0
4.647638958E0,-7.509733429E0,-3.206931152E0,-3.752696228E0,8.986836628E0
4.657580958E0,-7.534581757E0,-2.991678772E0,-3.658841400E0,8.894221973E0
4.667522958E0,-7.600145416E0,-2.894830170E0,-3.410657501E0,8.819004289E0
4.677464958E0,-7.785460052E0,-2.897225189E0,-3.050356750E0,8.849405535E0
4.687406958E0,-8.163274384E0,-2.970422974E0,-2.712658997E0,9.100603284E0
4.697348958E0,-8.675359497E0,-3.008892975E0,-2.428699493E0,9.498098787E0
4.707290958E0,-9.347761230E0,-3.030897217E0,-2.280208282E0,1.008792981E1
4.717232958E0,-1.008258316E1,-2.975961456E0,-2.233206024E0,1.074718749E1
4.727174958E0,-1.052326675E1,-2.859803009E0,-2.062411194E0,1.109825015E1
4.737116958E0,-1.069166656E1,-2.805016937E0,-1.849853210E0,1.120722137E1
4.747058958E0,-1.081096848E1,-2.895728302E0,-1.628014526E0,1.130985027E1
4.757000958E0,-1.078297668E1,-3.046464844E0,-1.433119812E0,1.129634306E1
4.766942958E0,-1.071067703E1,-3.231480103E0,-1.211131439E0,1.125290654E1
4.776884958E0,-1.072220306E1,-3.348686371E0,-8.954379272E-1,1.126859122E1
4.786826958E0,-1.081066910E1,-3.389252014E0,-5.495072937E-1,1.134281948E1
4.796768958E0,-1.098730179E1,-3.485651550E0,-3.442840576E-1,1.153208996E1
4.806710958E0,-1.143442200E1,-3.638034668E0,-3.252735901E-1,1.200362885E1
4.816652958E0,-1.207104813E1,-3.687731323E0,-3.555107117E-1,1.262679504E1
4.826594958E0,-1.261711258E1,-3.606450348E0,-3.129991150E-1,1.312615642E1
4.836535958E0,-1.306019119E1,-3.446283417E0,-3.658392334E-1,1.351219086E1
4.846477958E0,-1.327050385E1,-3.231180725E0,-5.144801331E-1,1.366790002E1
4.856419958E0,-1.337798035E1,-3.096011810E0,-7.289840698E-1,1.375089325E1
4.866361958E0,-1.352856720E1,-3.057691498E0,-1.024469604E0,1.390759310E1
4.876303958E0,-1.377390701E1,-3.149151306E0,-1.197360077E0,1.417996261E1
4.886245958E0,-1.399035690E1,-3.336561584E0,-1.189127197E0,1.443179660E1
4.896187958E0,-1.421174652E1,-3.455564117E0,-9.976753235E-1,1.465980964E1
4.906129958E0,-1.457189758E1,-3.582500153E0,-8.065228271E-1,1.502747436E1
4.916071958E0,-1.488175323E1,-3.710334320E0,-6.551875305E-1,1.535130062E1
4.926013958E0,-1.493983246E1,-3.661835175E0,-4.513114929E-1,1.538867482E1
4.935955958E0,-1.491124191E1,-3.422782288E0,-2.989283752E-1,1.530195844E1
4.945897958E0,-1.480152008E1,-3.021167450E0,-3.760180664E-1,1.511138111E1
4.955839958E0,-1.457713669E1,-2.519859924E0,-5.667214966E-1,1.480418121E1
4.965781958E0,-1.429108154E1,-2.108365631E0,-7.711962891E-1,1.446633889E1
4.975723958E0,-1.397179550E1,-1.947150879E0,-8.788224792E-1,1.413417118E1
4.985665958E0,-1.361254257E1,-1.954335938E0,-1.004860382E0,1.378878126E1
4.995607958E0,-1.320628738E1,-2.092199249E0,-1.148561554E0,1.342022793E1
5.005549958E0,-1.277982422E1,-2.252366180E0,-1.176104279E0,1.302997628E1
5.015491958E0,-1.233240463E1,-2.448907471E0,-1.179696808E0,1.262842177E1
5.025433958E0,-1.182481018E1,-2.662962341E0,-1.318158875E0,1.219241761E1
5.035375958E0,-1.133233429E1,-2.836002502E0,-1.495540009E0,1.177715375E1
5.045317958E0,-1.081920135E1,-2.989732819E0,-1.489253082E0,1.132305149E1
5.055259958E0,-1.043524979E1,-3.207829285E0,-1.469494171E0,1.101562617E1
5.065200958E0,-1.000953506E1,-3.387605438E0,-1.360520782E0,1.065446759E1
5.075142958E0,-9.463320923E0,-3.452121277E0,-1.243763580E0,1.014980453E1
5.085084958E0,-8.998836823E0,-3.469036102E0,-1.143172760E0,9.711854591E0
5.095026958E0,-8.688083038E0,-3.455264740E0,-1.145268402E0,9.419834447E0
5.104968958E0,-8.385562134E0,-3.427422638E0,-1.103954315E0,9.125984515E0
5.114910958E0,-8.073311462E0,-3.421135712E0,-1.007854156E0,8.826001220E0
5.124852958E0,-7.796986084E0,-3.407064972E0,-8.770262146E-1,8.553961579E0
5.134794958E0,-7.615413666E0,-3.430416412E0,-6.721023560E-1,8.379379669E0
5.144736958E0,-7.499105530E0,-3.525019684E0,-4.706213379E-1,8.299628423E0
5.154678958E0,-7.429649963E0,-3.667822723E0,-3.028202820E-1,8.291219587E0
5.164620958E0,-7.413483582E0,-3.819457397E0,-1.675016785E-1,8.341225955E0
5.174562958E0,-7.351063385E0,-3.948489075E0,-7.439529419E-2,8.344712908E0
5.184504958E0,-7.277715912E0,-4.091890869E0,-1.541793823E-1,8.350598246E0
5.194446958E0,-7.256759491E0,-4.231400757E0,-3.350033569E-1,8.406993394E0
5.204388958E0,-7.194788361E0,-4.349954224E0,-5.086422729E-1,8.422932878E0
5.214330958E0,-7.190447388E0,-4.427642670E0,-5.572911072E-1,8.462690271E0
5.224272958E0,-7.203919373E0,-4.506528625E0,-5.816903687E-1,8.517254150E0
5.234214958E0,-7.203470306E0,-4.591102753E0,-5.563929749E-1,8.560244277E0
5.244156958E0,-7.301366730E0,-4.705315247E0,-4.836442566E-1,8.699647088E0
5.254098958E0,-7.338339844E0,-4.787943420E0,-3.978726196E-1,8.771199261E0
5.264039958E0,-7.309749298E0,-4.770429840E0,-3.094065857E-1,8.734138085E0
5.273981958E0,-7.309599609E0,-4.755161591E0,-2.835104370E-1,8.724802942E0
5.283923958E0,-7.351512451E0,-4.788841553E0,-2.306703186E-1,8.776727610E0
5.293865958E0,-7.347321167E0,-4.927453308E0,-2.466870117E-1,8.850072255E0
5.303807958E0,-7.372917938E0,-5.162913666E0,-3.264710999E-1,9.006785210E0
5.313749958E0,-7.449857941E0,-5.516927490E0,-3.348536682E-1,9.276259982E0
5.323691958E0,-7.753276978E0,-5.920188904E0,-4.140390015E-1,9.763880829E0
5.333633833E0,-8.214018860E0,-6.323600006E0,-5.734574890E-1,1.038204587E1
5.343575833E0,-8.565637665E0,-6.615942078E0,-7.535330200E-1,1.084936174E1
5.353517833E0,-8.774303741E0,-6.835086365E0,-9.351054382E-1,1.116159639E1
5.363459833E0,-8.854686584E0,-7.024292908E0,-1.019829254E0,1.134840152E1
5.373401833E0,-8.867260437E0,-7.112758942E0,-9.636959839E-1,1.140825830E1
5.383343833E0,-8.875044250E0,-7.252867584E0,-8.132588196E-1,1.149051298E1
5.393285833E0,-8.899892578E0,-7.539371796E0,-6.048921204E-1,1.167973071E1
5.403227833E0,-9.013206940E0,-7.990383911E0,-4.026626587E-1,1.205181611E1
5.413169833E0,-9.183702393E0,-8.370742950E0,-2.327659607E-1,1.242835094E1
5.423111833E0,-9.339079285E0,-8.602910156E0,-2.228865051E-1,1.269953320E1
5.433053833E0,-9.587263184E0,-8.800499268E0,-3.348536682E-1,1.301831516E1
5.442995833E0,-9.548643494E0,-8.868158569E0,-4.543052673E-1,1.303944869E1
5.452937833E0,-9.201365662E0,-8.668922882E0,-4.963677979E-1,1.265155069E1
5.462878833E0,-8.544980621E0,-8.172704773E0,-4.818479919E-1,1.183393318E1
5.472820833E0,-7.594157867E0,-7.373217316E0,-3.926335144E-1,1.059196527E1
5.482762833E0,-7.066205750E0,-6.513255615E0,-1.293310547E-1,9.610956712E0
5.492704833E0,-6.991211700E0,-5.731431427E0,8.756790161E-2,9.040686665E0
5.502646833E0,-7.172933807E0,-5.181325378E0,1.429527283E-1,8.849720197E0
5.512588833E0,-7.552843781E0,-4.845124512E0,2.833607483E-1,8.977804521E0
5.522530833E0,-8.122708740E0,-4.627926178E0,2.374063110E-1,9.351601988E0
5.532472833E0,-8.793613586E0,-4.534819794E0,-2.456391907E-1,9.897099023E0
5.542414833E0,-9.232500916E0,-4.589306488E0,-1.097068634E0,1.036843126E1
5.552356833E0,-9.449399872E0,-4.686604156E0,-1.888323212E0,1.071546457E1
5.562298833E0,-9.244625702E0,-4.790937195E0,-2.507136383E0,1.070989806E1
5.572240833E0,-8.848549347E0,-5.003794556E0,-3.045716400E0,1.061184121E1
5.582182833E0,-8.536747742E0,-5.271288300E0,-3.475472717E0,1.061797782E1
5.592124833E0,-8.350235596E0,-5.479804688E0,-3.611390076E0,1.062058530E1
5.602066833E0,-8.139324188E0,-5.544320526E0,-3.630550232E0,1.049614135E1
5.612008833E0,-7.846383362E0,-5.415737915E0,-3.563190308E0,1.017802899E1
5.621950833E0,-7.513475647E0,-5.201982422E0,-3.522774353E0,9.794022491E0
5.631892833E0,-7.223827972E0,-4.909640350E0,-3.443738708E0,9.388695076E0
5.641834833E0,-7.120991821E0,-4.543651428E0,-3.463347931E0,9.129516510E0
5.651776833E0,-6.932533722E0,-4.081412659E0,-3.613336029E0,8.818965379E0
5.661717833E0,-6.832391968E0,-3.646566925E0,-3.798950043E0,8.626184079E0
5.671659833E0,-6.867419128E0,-3.224145355E0,-3.863166504E0,8.513554733E0
5.681601833E0,-6.833439789E0,-2.821183319E0,-3.731590118E0,8.281288516E0
5.691543833E0,-6.793622589E0,-2.625540161E0,-3.512595520E0,8.086105138E0
5.701485833E0,-6.730453949E0,-2.606829071E0,-3.261717224E0,7.920439850E0
5.711427833E0,-6.771618347E0,-2.757266235E0,-2.940784607E0,7.880707217E0
5.721369833E0,-6.884184265E0,-2.983894958E0,-2.540067902E0,7.921336192E0
5.731311833E0,-7.140301666E0,-3.261717224E0,-2.117945709E0,8.130707298E0
5.741253833E0,-7.509733429E0,-3.529510345E0,-1.815574493E0,8.494106792E0
5.751195833E0,-8.081095276E0,-3.727548523E0,-1.595382385E0,9.041236851E0
5.761137833E0,-8.762029266E0,-3.719465332E0,-1.411115570E0,9.622828398E0
5.771079833E0,-9.134155426E0,-3.482059021E0,-1.305285645E0,9.862114428E0
5.781021833E0,-9.390272827E0,-3.317700806E0,-1.321152649E0,1.004638277E1
5.790963833E0,-9.549841003E0,-3.242706757E0,-1.384620667E0,1.017996978E1
5.800905833E0,-9.586664429E0,-3.195255432E0,-1.399439850E0,1.020157949E1
5.810847833E0,-9.565109253E0,-3.103645935E0,-1.218316498E0,1.012957197E1
5.820789833E0,-9.576934662E0,-3.047662354E0,-9.698332214E-1,1.009685594E1
5.830731833E0,-9.711804199E0,-3.141217804E0,-7.424560547E-1,1.023414047E1
5.840672833E0,-9.968819733E0,-3.311563568E0,-4.361929321E-1,1.051351913E1
5.850614833E0,-1.031864227E1,-3.525917816E0,-1.124162292E-1,1.090500400E1
5.860556833E0,-1.071486832E1,-3.722010040E0,1.591191101E-1,1.134403282E1
5.870498833E0,-1.110989685E1,-3.826043701E0,2.664459229E-1,1.175327239E1
5.880440833E0,-1.161374908E1,-3.728296967E0,1.508862305E-1,1.219844796E1
5.890382833E0,-1.219169724E1,-3.432811432E0,-3.293151855E-2,1.266581068E1
5.900324833E0,-1.267264709E1,-2.997816010E0,-3.977229309E-1,1.302847147E1
5.910266833E0,-1.311707291E1,-2.582130432E0,-7.958949280E-1,1.339247729E1
5.920208833E0,-1.361658417E1,-2.236798553E0,-1.105600891E0,1.384330111E1
5.930150833E0,-1.401834869E1,-2.155367889E0,-1.340761871E0,1.424631016E1
5.940092833E0,-1.408615768E1,-2.337838440E0,-1.286125488E0,1.433664695E1
5.950034833E0,-1.403316788E1,-2.584226074E0,-1.015338593E0,1.430520666E1
5.959976833E0,-1.410621597E1,-2.942131805E0,-6.837780762E-1,1.442598423E1
5.969918833E0,-1.414827850E1,-3.342848511E0,-3.914360046E-1,1.454309606E1
5.979860833E0,-1.416579208E1,-3.590882721E0,-2.323168945E-1,1.461567909E1
5.989802833E0,-1.423674454E1,-3.531007233E0,-2.888992310E-1,1.467093623E1
5.999744833E0,-1.439316925E1,-3.139421539E0,-5.364843750E-1,1.474133997E1
6.009686833E0,-1.449585571E1,-2.596949615E0,-7.756869507E-1,1.474705633E1
6.019627833E0,-1.448522781E1,-2.315085754E0,-1.083147583E0,1.470899913E1
6.029569833E0,-1.443568085E1,-2.258952484E0,-1.343456268E0,1.467298956E1
6.039511833E0,-1.426129349E1,-2.319875793E0,-1.415007477E0,1.451787043E1
6.049453833E0,-1.398332153E1,-2.470612335E0,-1.369352417E0,1.426577486E1
6.059395833E0,-1.366134109E1,-2.698737946E0,-1.299148407E0,1.398582188E1
6.069337833E0,-1.326421692E1,-2.978356476E0,-1.234482880E0,1.365042145E1
6.079279833E0,-1.276859756E1,-3.254681854E0,-1.147214355E0,1.322672063E1
6.089221833E0,-1.217822525E1,-3.498075714E0,-1.047371979E0,1.271387793E1
6.099163833E0,-1.157438095E1,-3.707190857E0,-8.735833740E-1,1.218493768E1
6.109105833E0,-1.101424576E1,-3.894750824E0,-7.147636414E-1,1.170442569E1
6.119047833E0,-1.047237259E1,-3.950285339E0,-5.243595886E-1,1.120492280E1
6.128989833E0,-9.907896423E0,-3.818708954E0,-3.532653809E-1,1.062420567E1
6.138931833E0,-9.466165009E0,-3.590882721E0,-2.490820312E-1,1.012742616E1
6.148873833E0,-9.173972626E0,-3.281925201E0,-2.701881409E-1,9.747092305E0
6.158815833E0,-9.005123749E0,-2.971620483E0,-4.475692749E-1,9.493318718E0
6.168757833E0,-8.981921997E0,-2.708018646E0,-7.535330200E-1,9.411487649E0
6.178699833E0,-8.897946625E0,-2.590812378E0,-9.922865295E-1,9.320428932E0
6.188641833E0,-8.716523895E0,-2.665507050E0,-1.155596924E0,9.187933440E0
6.198582833E0,-8.416398010E0,-2.945574646E0,-1.220112762E0,9.000046701E0
6.208524833E0,-7.971972198E0,-3.331472168E0,-9.988728333E-1,8.697631544E0
6.218466833E0,-7.573201447E0,-3.690575409E0,-5.056484985E-1,8.439751620E0
6.228408833E0,-7.296127625E0,-4.028422852E0,-1.190025330E-1,8.335216289E0
6.238350833E0,-7.040459290E0,-4.303999786E0,2.499801636E-2,8.251854705E0
6.248292833E0,-6.877897339E0,-4.527335358E0,-8.801696777E-2,8.234681793E0
6.258234833E0,-6.796766052E0,-4.736450500E0,-3.906875610E-1,8.293529338E0
6.268176833E0,-6.748865662E0,-4.832101593E0,-6.707551575E-1,8.327442945E0
6.278118833E0,-6.599626007E0,-4.827760620E0,-8.500822449E-1,8.221008202E0
6.288060833E0,-6.523135071E0,-4.807402954E0,-8.382568359E-1,8.146477081E0
6.298002833E0,-6.406826935E0,-4.786596222E0,-6.825805664E-1,8.026509266E0
6.307944833E0,-6.324049072E0,-4.817731476E0,-4.336482239E-1,7.961920875E0
6.317886833E0,-6.380332031E0,-4.882696381E0,-2.029779053E-1,8.036825294E0
6.327828833E0,-6.683002625E0,-4.956792297E0,-6.481521606E-2,8.320848212E0
6.337770708E0,-7.259603577E0,-5.050497437E0,5.538482666E-3,8.843607811E0
6.347712708E0,-7.884853363E0,-5.088069305E0,-4.281097412E-2,9.384092636E0
6.357653708E0,-8.241711273E0,-5.074447632E0,-2.869532776E-1,9.682880029E0
6.367595708E0,-8.553213501E0,-5.071154480E0,-6.598278809E-1,9.965412274E0
6.377537708E0,-8.751850433E0,-5.102439423E0,-9.445358276E-1,1.017457233E1
6.387479708E0,-8.798104248E0,-5.180277557E0,-1.018182678E0,1.026053653E1
6.397421708E0,-8.805139618E0,-5.453160095E0,-9.351054382E-1,1.039912789E1
6.407363708E0,-8.573122101E0,-5.865851898E0,-6.735992432E-1,1.040962905E1
6.417305708E0,-8.241860962E0,-6.352190552E0,-2.436932373E-1,1.040855337E1
6.427247708E0,-8.004454651E0,-6.762487335E0,2.095642090E-1,1.048076554E1
6.437189708E0,-7.812553711E0,-7.032226410E0,6.894662476E-1,1.053392460E1
6.447131708E0,-7.712262268E0,-7.216942291E0,1.047371979E0,1.061415250E1
6.457073708E0,-7.791447601E0,-7.364984436E0,1.186283112E0,1.078688644E1
6.467015708E0,-7.999814301E0,-7.329957275E0,9.394464111E-1,1.089072367E1
6.476957708E0,-8.257877655E0,-6.990762634E0,2.297721863E-1,1.082201926E1
6.486899708E0,-8.458310852E0,-6.640041962E0,-4.279600525E-1,1.076179955E1
6.496841708E0,-8.701255646E0,-6.591542816E0,-8.262817383E-1,1.094728405E1
6.506783708E0,-8.667725372E0,-6.657256165E0,-9.821076965E-1,1.097328840E1
6.516725708E0,-8.488248596E0,-6.690786438E0,-9.830058289E-1,1.085280092E1
6.526666708E0,-8.309370575E0,-6.623426514E0,-8.125103760E-1,1.065718496E1
6.536608708E0,-8.144563293E0,-6.198310547E0,-4.855902100E-1,1.024640243E1
6.546550708E0,-8.276139679E0,-5.574707336E0,-1.939965820E-1,9.980455127E0
6.556492708E0,-8.624315643E0,-5.056335297E0,-9.834548950E-2,9.997750686E0
6.566434708E0,-9.024583282E0,-4.783153381E0,-2.523751831E-1,1.021691504E1
6.576376708E0,-9.482780457E0,-4.546645203E0,-4.131408691E-1,1.052453292E1
6.586318708E0,-9.693691864E0,-4.241878967E0,-5.550457764E-1,1.059571965E1
6.596260708E0,-9.631571045E0,-4.038901062E0,-7.075785828E-1,1.046807289E1
6.606202708E0,-9.315578156E0,-4.048930206E0,-9.235794067E-1,1.019935445E1
6.616144708E0,-8.962163086E0,-4.399201813E0,-1.257235565E0,1.006250391E1
6.626086708E0,-8.666976929E0,-4.804409180E0,-1.587149506E0,1.003582982E1
6.636028708E0,-8.298592987E0,-5.073100433E0,-1.717827759E0,9.876939090E0
6.645970708E0,-7.917784882E0,-5.209616547E0,-1.639690247E0,9.618732042E0
6.655912708E0,-7.632627869E0,-5.353766785E0,-1.490899658E0,9.441536356E0
6.665854708E0,-7.382348328E0,-5.526058502E0,-1.358724518E0,9.321079429E0
6.675796708E0,-7.077881470E0,-5.724994812E0,-1.296603699E0,9.195278835E0
6.685737708E0,-6.894662476E0,-5.867498474E0,-1.309027863E0,9.147538627E0
6.695679708E0,-6.882537689E0,-5.910309448E0,-1.442250824E0,9.185922396E0
6.705621708E0,-6.773863678E0,-5.733826447E0,-1.861678619E0,9.067956888E0
6.715563708E0,-6.694528656E0,-5.365442505E0,-2.433040466E0,8.917643921E0
6.725505708E0,-6.520440674E0,-4.997208252E0,-2.984194336E0,8.740346259E0
6.735447708E0,-6.315367126E0,-4.603676605E0,-3.502566376E0,8.564208746E0
6.745389708E0,-6.104006653E0,-4.188889160E0,-3.924239502E0,8.378863007E0
6.755331708E0,-5.946234741E0,-3.742966461E0,-4.165537720E0,8.168182786E0
6.765273708E0,-5.968538361E0,-3.348237305E0,-4.066144409E0,7.960381496E0
6.775215708E0,-6.122418365E0,-3.029400330E0,-3.651506653E0,7.745629338E0
6.785157708E0,-6.580914917E0,-2.868484955E0,-3.155438232E0,7.841775151E0
6.795099708E0,-7.163653107E0,-2.790347443E0,-2.650089111E0,8.131847083E0
6.805041708E0,-7.760312347E0,-2.772085419E0,-2.293979645E0,8.553902496E0
6.814983708E0,-8.525670776E0,-2.707868958E0,-2.067051544E0,9.181084825E0
6.824925708E0,-9.113797760E0,-2.574047241E0,-1.983525238E0,9.675815272E0
6.834866708E0,-9.474996643E0,-2.485730896E0,-2.000889130E0,9.997898618E0
6.844808708E0,-9.581874390E0,-2.498604126E0,-1.958377533E0,1.009408648E1
6.854750708E0,-9.537267151E0,-2.693648529E0,-1.803300018E0,1.007308781E1
6.864692708E0,-9.398805084E0,-2.955454102E0,-1.601369934E0,9.981815047E0
6.874634708E0,-9.289232941E0,-3.191812592E0,-1.396446075E0,9.921067376E0
6.884576708E0,-9.327553253E0,-3.337310028E0,-1.092877350E0,9.966708023E0
6.894518708E0,-9.632768555E0,-3.385360107E0,-7.453001404E-1,1.023749800E1
6.904460708E0,-1.020383102E1,-3.362906799E0,-4.704716492E-1,1.075400638E1
6.914402708E0,-1.088596252E1,-3.218457184E0,-3.188369751E-1,1.135624514E1
6.924344708E0,-1.140568176E1,-3.054697723E0,-2.266287231E-1,1.180983130E1
6.934286708E0,-1.173873917E1,-2.946622467E0,-1.992356873E-1,1.210455600E1
6.944228708E0,-1.203961349E1,-2.924468536E0,-1.663041687E-1,1.239082186E1
6.954170708E0,-1.223810074E1,-2.937790833E0,-1.681004333E-1,1.258689725E1
6.964112708E0,-1.246293320E1,-2.979104919E0,-2.486329651E-1,1.281645771E1
6.974054708E0,-1.268087997E1,-3.039130096E0,-3.966751099E-1,1.304601011E1
6.983996708E0,-1.290481430E1,-3.060086517E0,-5.613327026E-1,1.327454165E1
6.993937708E0,-1.321407120E1,-3.012186127E0,-6.318360901E-1,1.356776178E1
7.003879708E0,-1.367690872E1,-3.072660370E0,-6.665638733E-1,1.403365175E1
7.013821708E0,-1.424213333E1,-3.190315704E0,-7.607180786E-1,1.461489542E1
7.023763708E0,-1.467982315E1,-3.335064697E0,-8.159532166E-1,1.507599562E1
7.033705708E0,-1.510209503E1,-3.566932526E0,-8.018824768E-1,1.553831707E1
7.043647708E0,-1.534399200E1,-3.915407867E0,-8.036787415E-1,1.585605275E1
7.053589708E0,-1.534728516E1,-4.217629395E0,-7.596702576E-1,1.593438603E1
7.063531708E0,-1.523352173E1,-4.292623444E0,-6.767427063E-1,1.584123672E1
7.073473708E0,-1.490690094E1,-4.048930206E0,-4.643344116E-1,1.545396835E1
7.083415708E0,-1.435739365E1,-3.504063263E0,-3.453318787E-1,1.478284363E1
7.093357708E0,-1.394724655E1,-2.955154724E0,-3.309617615E-1,1.426072093E1
7.103299708E0,-1.362421829E1,-2.619702301E0,-2.778222656E-1,1.387657557E1
7.113241708E0,-1.308653641E1,-2.400558014E0,-1.763333130E-1,1.330605905E1
7.123183708E0,-1.259450958E1,-2.297572174E0,-1.281335449E-1,1.280300464E1
7.133125708E0,-1.214020432E1,-2.446961517E0,-7.484436035E-2,1.238457844E1
7.143066708E0,-1.157991943E1,-2.696342926E0,-5.748046875E-2,1.188983193E1
7.153008708E0,-1.102666992E1,-2.860401764E0,-1.821711731E-1,1.139309151E1
7.162950708E0,-1.046009811E1,-2.937042389E0,-3.351530457E-1,1.086978372E1
7.172892708E0,-9.985435181E0,-3.037483521E0,-5.288502502E-1,1.045059350E1
7.182834708E0,-9.636660461E0,-3.169958038E0,-6.508465576E-1,1.016550343E1
7.192776708E0,-9.307794342E0,-3.327729950E0,-7.274871826E-1,9.911511476E0
7.202718708E0,-9.054071960E0,-3.498824158E0,-7.702981567E-1,9.737111933E0
7.212660708E0,-8.875643005E0,-3.610491943E0,-7.135661316E-1,9.608426898E0
7.222602708E0,-8.669821014E0,-3.588487701E0,-5.529501343E-1,9.399403931E0
7.232544708E0,-8.422235870E0,-3.470682678E0,-4.248165894E-1,9.119219508E0
7.242486708E0,-8.379275208E0,-3.315305786E0,-3.857478333E-1,9.019551366E0
7.252428708E0,-8.384214935E0,-3.128045197E0,-5.408253479E-1,8.965055431E0
7.262370708E0,-8.334368591E0,-2.938389587E0,-6.738986206E-1,8.862842238E0
7.272312708E0,-8.371491394E0,-2.825374603E0,-7.587721252E-1,8.867939160E0
7.282254708E0,-8.453371124E0,-2.817890167E0,-7.849676514E-1,8.945175380E0
7.292195708E0,-8.424630890E0,-2.866838379E0,-5.758525085E-1,8.917666401E0
7.302137708E0,-8.309220886E0,-2.976859589E0,-3.285667419E-1,8.832485542E0
7.312079708E0,-8.238717499E0,-3.160976715E0,9.879455566E-3,8.824303792E0
7.322021708E0,-8.201594696E0,-3.402274933E0,3.125500488E-1,8.884780122E0
7.331964125E0,-8.232729950E0,-3.633843384E0,5.065466309E-1,9.013281847E0
7.341906125E0,-8.196654968E0,-3.863765259E0,6.756948853E-1,9.086825530E0
7.351848125E0,-8.144114227E0,-4.113446045E0,6.891668701E-1,9.149971906E0
7.361790125E0,-8.159382477E0,-4.350552979E0,4.875361633E-1,9.259617980E0
7.371732125E0,-8.143216095E0,-4.555626526E0,2.115101624E-1,9.333297272E0
7.381674125E0,-8.130492554E0,-4.602628784E0,-4.805007935E-2,9.342987194E0
7.391616125E0,-8.190068665E0,-4.563410339E0,-2.222877502E-1,9.378238134E0
7.401558125E0,-8.108188934E0,-4.495900726E0,-3.552113342E-1,9.278039999E0
7.411500125E0,-8.172854462E0,-4.539460144E0,-3.869453430E-1,9.356921243E0
7.421442125E0,-8.344098358E0,-4.681514740E0,-2.628533936E-1,9.571292994E0
7.431383125E0,-8.408913574E0,-4.868625641E0,-1.764830017E-1,9.718255470E0
7.441325125E0,-8.532406769E0,-5.057832184E0,-1.784289551E-1,9.920457074E0
7.451267125E0,-8.645870819E0,-5.284610596E0,-2.556683350E-1,1.013624968E1
7.461209125E0,-8.648714905E0,-5.488636322E0,-4.119433594E-1,1.025158990E1
7.471151125E0,-8.662336578E0,-5.693560181E0,-6.027964783E-1,1.038345155E1
7.481093125E0,-8.498876495E0,-5.843398590E0,-7.250921631E-1,1.033934076E1
7.491035125E0,-8.361611938E0,-5.987997894E0,-7.378157043E-1,1.031101571E1
7.500977125E0,-8.287815399E0,-6.143374786E0,-7.587721252E-1,1.034430631E1
7.510919125E0,-8.055498505E0,-6.308032379E0,-6.837780762E-1,1.025426161E1
7.520861125E0,-7.829318848E0,-6.440207520E0,-5.541476440E-1,1.015291023E1
7.530803125E0,-7.782166901E0,-6.604266357E0,-4.132905579E-1,1.021514879E1
7.540745125E0,-7.807763672E0,-6.843768311E0,-3.385958862E-1,1.038811751E1
7.550687125E0,-7.812553711E0,-7.130122833E0,-2.799179077E-1,1.058078452E1
7.560629125E0,-7.693102112E0,-7.287745056E0,-2.275268555E-1,1.059937812E1
7.570571125E0,-7.744894409E0,-7.474556580E0,-3.094065857E-1,1.076792078E1
7.580512125E0,-8.302335205E0,-7.821385345E0,-3.776646423E-1,1.141251371E1
7.590454125E0,-8.859925690E0,-8.024213562E0,-4.572990417E-1,1.196224933E1
7.600396125E0,-9.056167603E0,-7.992030487E0,-4.251159668E-1,1.208583661E1
7.610338125E0,-8.846304016E0,-7.688761139E0,-1.829196167E-1,1.172209888E1
7.620280125E0,-8.477920074E0,-7.065756683E0,2.263293457E-1,1.103862633E1
7.630222125E0,-8.278684387E0,-6.404581604E0,5.542973328E-1,1.048153263E1
7.640164125E0,-8.196804657E0,-5.857918396E0,7.679031372E-1,1.010408283E1
7.650106125E0,-8.102800140E0,-5.353916473E0,9.318122864E-1,9.756437150E0
7.660048125E0,-8.340805206E0,-4.990322571E0,9.620494080E-1,9.767184339E0
7.669990125E0,-8.856482849E0,-4.718038788E0,8.352630615E-1,1.006950063E1
7.679932125E0,-9.325158234E0,-4.425996094E0,5.295986938E-1,1.033578697E1
7.689874125E0,-9.617949371E0,-4.193080444E0,-6.810836792E-2,1.049245026E1
7.699816125E0,-9.631121979E0,-4.082909546E0,-8.943901062E-1,1.049898065E1
7.709758125E0,-9.496402130E0,-4.084406433E0,-1.737287292E0,1.048247091E1
7.719699125E0,-9.187145233E0,-4.079915771E0,-2.507884827E0,1.036044577E1
7.729641125E0,-8.804989929E0,-4.092040558E0,-3.040177917E0,1.017424815E1
7.739583125E0,-8.358468475E0,-4.165537720E0,-3.341651001E0,9.918786779E0
7.749525125E0,-7.961643677E0,-4.182602234E0,-3.422183533E0,9.622539769E0
7.759467125E0,-7.634274445E0,-4.166435852E0,-3.247496796E0,9.283726054E0
7.769409125E0,-7.305707703E0,-4.109404449E0,-2.910846863E0,8.873195559E0
7.779351125E0,-7.027436371E0,-3.925886078E0,-2.521656189E0,8.435413053E0
7.789293125E0,-6.876699829E0,-3.652554474E0,-2.261796570E0,8.108383220E0
7.799235125E0,-7.131919098E0,-3.406017151E0,-2.237546997E0,8.214124385E0
7.809177125E0,-7.354506226E0,-2.944526825E0,-2.319426727E0,8.254619336E0
7.819119125E0,-7.198530579E0,-2.424508209E0,-2.533182220E0,8.007127744E0
7.829061125E0,-7.068002014E0,-2.198178864E0,-2.814896393E0,7.919108819E0
7.839003125E0,-7.071145477E0,-2.129022675E0,-2.947819977E0,7.951319295E0
7.848944125E0,-7.060517578E0,-2.178719330E0,-2.960094452E0,7.959892308E0
7.858886125E0,-7.103178864E0,-2.382295990E0,-2.833607483E0,8.009982242E0
7.868828125E0,-7.311994629E0,-2.690654755E0,-2.440824280E0,8.164711362E0
7.878770125E0,-7.685617676E0,-2.974314880E0,-1.877994690E0,8.452344771E0
7.888712125E0,-8.092172241E0,-3.190615082E0,-1.358275452E0,8.803873488E0
7.898654125E0,-8.767717438E0,-3.386258240E0,-9.294172668E-1,9.444756767E0
7.908596125E0,-9.585167542E0,-3.394640808E0,-6.002517700E-1,1.018623214E1
7.918538125E0,-1.032507889E1,-3.149001617E0,-3.517684937E-1,1.080033362E1
7.928480125E0,-1.074929672E1,-2.740501099E0,-3.019221497E-1,1.109724665E1
7.938422125E0,-1.106109833E1,-2.494861908E0,-4.523593140E-1,1.134798930E1
7.948364125E0,-1.120494919E1,-2.339934082E0,-7.165599060E-1,1.146907302E1
7.958306125E0,-1.110810059E1,-2.100881195E0,-9.081614685E-1,1.134144425E1
7.968248125E0,-1.096889008E1,-1.861528931E0,-9.551637268E-1,1.116665470E1
7.978190125E0,-1.080513062E1,-1.694476318E0,-9.015751648E-1,1.097428519E1
7.988131125E0,-1.075438614E1,-1.680255890E0,-7.511380005E-1,1.091074193E1
7.998073125E0,-1.093535980E1,-1.743723907E0,-5.445675659E-1,1.108689411E1
8.008015125E0,-1.123593475E1,-1.827100525E0,-4.025129700E-1,1.139063399E1
8.017957125E0,-1.153052216E1,-1.962868195E0,-3.481759644E-1,1.170158191E1
8.027899125E0,-1.161135406E1,-2.123184814E0,-3.177891541E-1,1.180815171E1
8.037841125E0,-1.170820267E1,-2.276316376E0,-4.128414917E-1,1.193457431E1
8.047783125E0,-1.182136734E1,-2.363135834E0,-5.649252319E-1,1.206848281E1
8.057725125E0,-1.210053680E1,-2.453398132E0,-7.488926697E-1,1.236943788E1
8.067667125E0,-1.240814713E1,-2.486928406E0,-8.604107666E-1,1.268413319E1
8.077609125E0,-1.266800674E1,-2.493664398E0,-9.282197571E-1,1.294443312E1
8.087551125E0,-1.289807831E1,-2.481689301E0,-9.544152832E-1,1.316928678E1
8.097493125E0,-1.313129333E1,-2.668949890E0,-8.916957092E-1,1.342941843E1
8.107435125E0,-1.326152252E1,-2.947071533E0,-7.548802185E-1,1.360599333E1
8.117376125E0,-1.328562241E1,-3.097658386E0,-6.382727051E-1,1.365688992E1
8.127318125E0,-1.339220078E1,-3.238216095E0,-5.533992004E-1,1.378924711E1
8.137260125E0,-1.357377319E1,-3.524121552E0,-5.553451538E-1,1.403478392E1
8.147202125E0,-1.359293335E1,-3.726051636E0,-5.710624695E-1,1.410593528E1
8.157144125E0,-1.336750214E1,-3.745810547E0,-6.719526672E-1,1.389865930E1
8.167086125E0,-1.286035675E1,-3.731141052E0,-6.493496704E-1,1.340641057E1
8.177028125E0,-1.243179794E1,-3.540437622E0,-4.882846069E-1,1.293532839E1
8.186970125E0,-1.212508575E1,-3.240012360E0,-3.061134338E-1,1.255424590E1
8.196912125E0,-1.195533875E1,-3.006647644E0,-1.228944397E-1,1.232822605E1
8.206854125E0,-1.183543808E1,-2.910098419E0,6.256988525E-2,1.218811644E1
8.216796125E0,-1.167287613E1,-3.003803558E0,2.076182556E-1,1.205495659E1
8.226738125E0,-1.150223099E1,-3.194357300E0,3.305126953E-1,1.194213025E1
8.236680125E0,-1.129221771E1,-3.401825867E0,4.029620361E-1,1.180038044E1
8.246622125E0,-1.118758530E1,-3.582799530E0,3.266207886E-1,1.175181681E1
8.256563125E0,-1.121647522E1,-3.811074829E0,-6.286926270E-3,1.184625034E1
8.266505125E0,-1.115734818E1,-3.978576508E0,-4.200265503E-1,1.185292840E1
8.276447125E0,-1.094778397E1,-3.887416077E0,-7.610174561E-1,1.164238485E1
8.286389125E0,-1.072878937E1,-3.762875061E0,-9.955796814E-1,1.141303329E1
8.296331125E0,-1.057041870E1,-3.547922058E0,-1.089284821E0,1.120303726E1
8.306273125E0,-1.056098831E1,-3.191513214E0,-1.097667389E0,1.108715944E1
8.316215125E0,-1.069720505E1,-2.691253510E0,-1.019679565E0,1.107758041E1
8.326157125E0,-1.086844894E1,-2.187700653E0,-8.978329468E-1,1.112273890E1
8.336098375E0,-1.101828735E1,-1.811532898E0,-8.890013123E-1,1.120154592E1
8.346040375E0,-1.098206268E1,-1.540596313E0,-8.945397949E-1,1.112561635E1
8.355982375E0,-1.082893112E1,-1.395098877E0,-9.958790588E-1,1.096375051E1
8.365924375E0,-1.071965836E1,-1.463806000E0,-9.882449341E-1,1.086418112E1
8.375866375E0,-1.055485107E1,-1.590592346E0,-8.300239563E-1,1.070625074E1
8.385807375E0,-1.032567764E1,-1.858385468E0,-6.325845337E-1,1.051063169E1
8.395749375E0,-1.005578888E1,-2.247127075E0,-4.584965515E-1,1.031400452E1
8.405691375E0,-9.871671753E0,-2.665357361E0,-3.670367432E-1,1.023175200E1
8.415633375E0,-9.661957855E0,-3.048111420E0,-3.787124634E-1,1.013843360E1
8.425575375E0,-9.337732086E0,-3.351979523E0,-4.685256958E-1,9.932196311E0
8.435517375E0,-8.986412659E0,-3.620820465E0,-4.987628174E-1,9.701274023E0
8.445459375E0,-8.646170197E0,-3.839515686E0,-4.836442566E-1,9.472700330E0
8.455401375E0,-8.326435089E0,-4.032314758E0,-4.706213379E-1,9.263399379E0
8.465343375E0,-8.129444733E0,-4.203259277E0,-4.195774841E-1,9.161403030E0
8.475285375E0,-7.961643677E0,-4.301604767E0,-2.923420715E-1,9.054117157E0
8.485227375E0,-7.764503632E0,-4.377946014E0,-1.679507446E-1,8.915275397E0
8.495169375E0,-7.555238800E0,-4.407584381E0,3.233276367E-2,8.746969693E0
8.505111375E0,-7.385791168E0,-4.402944031E0,2.549198914E-1,8.602372433E0
8.515052375E0,-7.329657898E0,-4.388723602E0,4.584965515E-1,8.555407579E0
8.524994375E0,-7.381899261E0,-4.441114655E0,5.706134033E-1,8.633744016E0
8.534936375E0,-7.590116272E0,-4.573888550E0,5.620811462E-1,8.879541469E0
8.544878375E0,-7.912695465E0,-4.786745911E0,4.532574463E-1,9.259002552E0
8.554820375E0,-7.965685272E0,-4.945565643E0,2.644999695E-1,9.379803922E0
8.564762375E0,-7.869435425E0,-5.139861603E0,3.742218018E-3,9.399266206E0
8.574704375E0,-7.754624176E0,-5.358556824E0,-2.258802795E-1,9.428645144E0
8.584646375E0,-7.648045807E0,-5.601501617E0,-3.501219177E-1,9.486411882E0
8.594588375E0,-7.550448761E0,-5.876629486E0,-2.755769348E-1,9.571833328E0
8.604530375E0,-7.469018097E0,-6.081852722E0,-9.714797974E-2,9.632476400E0
8.614472375E0,-7.390281830E0,-6.294111328E0,5.328918457E-2,9.707468397E0
8.624414375E0,-7.351961517E0,-6.439908142E0,2.502795410E-1,9.776829490E0
8.634355375E0,-7.377109222E0,-6.488407288E0,4.129911804E-1,9.833195377E0
8.644297375E0,-7.341932373E0,-6.551426239E0,3.800596619E-1,9.847314460E0
8.654239375E0,-7.434589691E0,-6.764283600E0,1.907034302E-1,1.005311018E1
8.664181375E0,-7.705975342E0,-7.035818939E0,-6.721023560E-2,1.043500462E1
8.674123375E0,-7.749983826E0,-7.288044434E0,-2.445913696E-1,1.064131880E1
8.684065375E0,-7.836054840E0,-7.663014679E0,-3.582051086E-1,1.096603211E1
8.694007375E0,-7.765701141E0,-7.902816010E0,-3.603007507E-1,1.108559569E1
8.703949375E0,-7.384743347E0,-7.794591064E0,-2.314187622E-1,1.073981559E1
8.713891375E0,-6.850055237E0,-7.320826263E0,8.367599487E-2,1.002620345E1
8.723833375E0,-6.305787048E0,-6.563850403E0,3.932322693E-1,9.110527648E0
8.733775375E0,-6.260581055E0,-5.760171661E0,6.062393188E-1,8.528890832E0
8.743717375E0,-6.708599396E0,-5.022206268E0,7.048841858E-1,8.409799247E0
8.753658375E0,-7.493716736E0,-4.405339050E0,5.783972168E-1,8.711908287E0
8.763600375E0,-8.436755676E0,-3.928879852E0,3.849993896E-1,9.314674861E0
8.773542375E0,-9.250912628E0,-3.535497894E0,6.047424316E-2,9.903675426E0
8.783484375E0,-9.863588562E0,-3.323838043E0,-3.998185730E-1,1.041624374E1
8.793426375E0,-1.004860382E1,-3.302582245E0,-8.897497559E-1,1.061476061E1
8.803368375E0,-9.944420471E0,-3.385210419E0,-1.465751953E0,1.060658177E1
8.813310375E0,-9.717192993E0,-3.505859528E0,-1.937570801E0,1.051042679E1
8.823252375E0,-9.478289795E0,-3.663182373E0,-2.223925323E0,1.040205395E1
8.833194375E0,-9.369316406E0,-3.833079071E0,-2.366878052E0,1.039609046E1
8.843136375E0,-9.377698975E0,-4.118834839E0,-2.355202332E0,1.050966301E1
8.853078375E0,-9.418863373E0,-4.403393097E0,-2.188449097E0,1.062516670E1
8.863020375E0,-9.494755554E0,-4.602329407E0,-1.939067688E0,1.072808475E1
8.872961375E0,-9.584119720E0,-4.735252991E0,-1.800306244E0,1.084062149E1
8.882903375E0,-9.595496063E0,-4.658312988E0,-1.882485352E0,1.083130536E1
8.892845375E0,-9.718390503E0,-4.428540802E0,-2.179018707E0,1.089987202E1
8.902787375E0,-9.554181976E0,-4.122277679E0,-2.677182770E0,1.074443456E1
8.912729375E0,-9.349258118E0,-3.812571716E0,-3.158581696E0,1.057927071E1
8.922671375E0,-9.060658264E0,-3.464994507E0,-3.438050537E0,1.029183689E1
8.932613375E0,-8.670270081E0,-3.128943329E0,-3.429518280E0,9.834910536E0
8.942555375E0,-8.380472717E0,-2.950514374E0,-3.334465942E0,9.489811439E0
8.952497375E0,-8.314459991E0,-2.827320557E0,-3.076252899E0,9.305230700E0
8.962439375E0,-8.417595520E0,-2.659818878E0,-2.655028839E0,9.218445039E0
8.972381375E0,-8.580456848E0,-2.447260895E0,-2.264940033E0,9.205611276E0
8.982323375E0,-8.928183746E0,-2.317929840E0,-1.985920258E0,9.435525583E0
8.992265375E0,-9.311835938E0,-2.202370148E0,-1.967807922E0,9.768981053E0
9.002206375E0,-9.678423615E0,-2.057770844E0,-2.130968628E0,1.012162693E1
9.012148375E0,-1.004725662E1,-1.901346130E0,-2.344574432E0,1.049092522E1
9.022090375E0,-1.019829254E1,-1.771416321E0,-2.507585449E0,1.065040240E1
9.032032375E0,-1.007420059E1,-1.738335114E0,-2.425256653E0,1.050681666E1
9.041974375E0,-9.884844360E0,-1.793719940E0,-2.097887421E0,1.026297768E1
9.051916375E0,-9.648036804E0,-2.005080414E0,-1.750759277E0,1.000850237E1
9.061858375E0,-9.514664154E0,-2.340233459E0,-1.445394287E0,9.904276412E0
9.071800375E0,-9.571096802E0,-2.573298798E0,-1.111738129E0,9.973150072E0
9.081742375E0,-9.761051788E0,-2.650089111E0,-8.472381592E-1,1.014982349E1
9.091684375E0,-1.007075775E1,-2.558479614E0,-6.737489319E-1,1.041248852E1
9.101626375E0,-1.031759445E1,-2.420616302E0,-5.626799011E-1,1.061266918E1
9.111568375E0,-1.050620224E1,-2.363584900E0,-5.951623535E-1,1.078522310E1
9.121509375E0,-1.073148376E1,-2.361788635E0,-6.032455444E-1,1.100484868E1
9.131451375E0,-1.094598770E1,-2.435136108E0,-5.472619629E-1,1.122693325E1
9.141393375E0,-1.129760651E1,-2.637964325E0,-5.676196289E-1,1.161537604E1
9.151335375E0,-1.173350006E1,-2.877466278E0,-5.523513794E-1,1.209379708E1
9.161277375E0,-1.207613754E1,-2.985840912E0,-4.141886902E-1,1.244668214E1
9.171219375E0,-1.254975266E1,-3.040028229E0,-2.237846375E-1,1.291464838E1
9.181161375E0,-1.314356781E1,-3.065325623E0,-1.356179810E-1,1.349696218E1
9.191103375E0,-1.375504623E1,-3.008892975E0,-1.236428833E-1,1.408083880E1
9.201045375E0,-1.448028809E1,-2.902314606E0,-2.341131592E-1,1.477013819E1
9.210987375E0,-1.512409927E1,-2.652334442E0,-3.725752258E-1,1.535942932E1
9.220929375E0,-1.545880325E1,-2.313738556E0,-6.327342224E-1,1.564379547E1
9.230871375E0,-1.565055450E1,-2.124681702E0,-1.034498749E0,1.582795995E1
9.240812375E0,-1.570444244E1,-2.159708862E0,-1.363664246E0,1.591079618E1
9.250754375E0,-1.558948151E1,-2.235750732E0,-1.609752502E0,1.583103970E1
9.260696375E0,-1.529459473E1,-2.319576416E0,-1.771715698E0,1.557061460E1
9.270638375E0,-1.488310043E1,-2.331850891E0,-1.788181458E0,1.517042518E1
9.280580375E0,-1.434541855E1,-2.187401276E0,-1.704355774E0,1.461097486E1
9.290522375E0,-1.378408585E1,-1.907034302E0,-1.525926819E0,1.399879477E1
9.300464375E0,-1.318158875E1,-1.688488770E0,-1.365161133E0,1.335922681E1
9.310406375E0,-1.270991959E1,-1.642085266E0,-1.239422607E0,1.287535119E1
9.320348375E0,-1.235515732E1,-1.681752777E0,-1.129102020E0,1.252010687E1
9.330290375E0,-1.194336365E1,-1.799707489E0,-1.085841980E0,1.212690954E1
9.340232583E0,-1.155267609E1,-2.003134460E0,-1.116977234E0,1.177813697E1
9.350173583E0,-1.116423386E1,-2.262245636E0,-1.172960815E0,1.145136280E1
9.360115583E0,-1.070768326E1,-2.563569031E0,-1.147513733E0,1.106992117E1
9.370057583E0,-1.025756927E1,-2.893782349E0,-1.175954590E0,1.072261968E1
9.379999583E0,-9.874216461E0,-3.253035278E0,-1.224902802E0,1.046817922E1
9.389941583E0,-9.539512482E0,-3.583398285E0,-1.165177002E0,1.025673823E1
9.399883583E0,-9.313332825E0,-3.853586426E0,-1.063688049E0,1.013507419E1
9.409825583E0,-9.159901886E0,-4.068389740E0,-1.044527893E0,1.007703509E1
9.419767583E0,-9.032965851E0,-4.186494141E0,-9.970765686E-1,1.000576668E1
9.429709583E0,-8.984766083E0,-4.188290405E0,-8.731343079E-1,9.951389933E0
9.439651583E0,-9.004075928E0,-4.056264954E0,-7.822732544E-1,9.906493836E0
9.449593583E0,-9.217831421E0,-3.823948059E0,-6.201603699E-1,9.998779613E0
9.459535583E0,-9.575587463E0,-3.669020233E0,-4.881349182E-1,1.026605379E1
9.469476583E0,-9.799222412E0,-3.502865753E0,-3.567082214E-1,1.041259185E1
9.479418583E0,-9.900112610E0,-3.347488861E0,-2.841091919E-1,1.045459848E1
9.489360583E0,-1.001118164E1,-3.218157806E0,-2.628533936E-1,1.051900135E1
9.499302583E0,-1.008228378E1,-3.188818817E0,-1.936972046E-1,1.057631932E1
9.509244583E0,-9.999206543E0,-3.217259674E0,-7.813751221E-2,1.050433229E1
9.519186583E0,-9.866732025E0,-3.274440765E0,1.094224548E-1,1.039645788E1
9.529128583E0,-9.753267975E0,-3.448528748E0,3.353027344E-1,1.035041133E1
9.539070583E0,-9.589957581E0,-3.682641907E0,5.367837524E-1,1.028675238E1
9.549012583E0,-9.418713684E0,-3.893852692E0,7.167095947E-1,1.021704110E1
9.558954583E0,-9.239536285E0,-4.086951141E0,8.211923218E-1,1.013639765E1
9.568896583E0,-8.999585266E0,-4.225263519E0,8.241860962E-1,9.976205165E0
9.578837583E0,-8.832233276E0,-4.367318115E0,6.948550415E-1,9.877481243E0
9.588779583E0,-8.550219727E0,-4.496948547E0,5.273533630E-1,9.675066159E0
9.598721583E0,-8.255782013E0,-4.566703491E0,2.745291138E-1,9.438648402E0
9.608663583E0,-7.982450409E0,-4.569547577E0,4.849914551E-2,9.197968893E0
9.618605583E0,-7.702682190E0,-4.602778473E0,-5.972579956E-2,8.973318771E0
9.628547583E0,-7.477849731E0,-4.684209137E0,-7.858657837E-2,8.824184251E0
9.638489583E0,-7.300019531E0,-4.821623383E0,-3.592529297E-2,8.748692921E0
9.648431583E0,-7.188351746E0,-5.045408020E0,1.317260742E-2,8.782295624E0
9.658373583E0,-7.153324585E0,-5.350174255E0,3.068618774E-2,8.932824795E0
9.668315583E0,-7.179520111E0,-5.676345978E0,-5.448669434E-2,9.152561471E0
9.678257583E0,-7.203170929E0,-5.930218048E0,-2.092648315E-1,9.332574634E0
9.688198583E0,-7.233408051E0,-6.127208405E0,-4.236190796E-1,9.489168983E0
9.698140583E0,-7.215295715E0,-6.315217438E0,-7.222480774E-1,9.615825801E0
9.708082583E0,-7.096592560E0,-6.436016235E0,-9.526190186E-1,9.627638025E0
9.718024583E0,-6.958878937E0,-6.550378418E0,-1.058299255E0,9.615271748E0
9.727966583E0,-6.930138702E0,-6.649921417E0,-1.008901978E0,9.657440680E0
9.737908583E0,-7.019053802E0,-6.756649475E0,-8.144563293E-1,9.776643981E0
9.747850583E0,-7.294780426E0,-6.960974579E0,-5.189707947E-1,1.009645082E1
9.757792583E0,-7.682474213E0,-7.236551514E0,-2.451901245E-1,1.055690324E1
9.767734583E0,-7.989485779E0,-7.464677124E0,-1.341210938E-1,1.093486516E1
9.777676583E0,-8.344547424E0,-7.684120789E0,-2.038760376E-1,1.134542857E1
9.787618583E0,-8.649163971E0,-7.720345459E0,-3.459306335E-1,1.159876887E1
9.797559583E0,-8.642128601E0,-7.420219574E0,-3.833528137E-1,1.139706123E1
9.807501583E0,-8.363707581E0,-6.990463257E0,-2.195933533E-1,1.090258695E1
9.817443583E0,-8.028853912E0,-6.719826050E0,7.948471069E-2,1.047018983E1
9.827385583E0,-7.586972809E0,-6.400540009E0,3.303630066E-1,9.931677025E0
9.837327583E0,-7.209158478E0,-5.845045166E0,5.495072937E-1,9.297229545E0
9.847269583E0,-7.035369873E0,-5.226082306E0,6.929090881E-1,8.791387179E0
9.857211583E0,-7.221582642E0,-4.697980499E0,6.248007202E-1,8.637861573E0
9.867153583E0,-7.718998260E0,-4.339026947E0,3.162922668E-1,8.860594212E0
9.877095583E0,-8.397986298E0,-4.104464722E0,-1.368154907E-1,9.348343328E0
9.887037583E0,-8.848549347E0,-3.887565765E0,-6.682104492E-1,9.687956355E0
9.896979583E0,-9.048533478E0,-3.811823273E0,-1.162632294E0,9.887247777E0
9.906921583E0,-9.159752197E0,-3.871848450E0,-1.599873047E0,1.007233163E1
9.916862583E0,-9.178163910E0,-4.017196198E0,-1.977388000E0,1.021208213E1
9.926804583E0,-9.010213165E0,-4.253404999E0,-2.331252136E0,1.023279688E1
9.936746583E0,-8.728199615E0,-4.556674347E0,-2.604284363E0,1.018464760E1
9.946688583E0,-8.518785095E0,-4.892276459E0,-2.660866699E0,1.017763627E1
9.956630583E0,-8.357720032E0,-5.187612305E0,-2.523302765E0,1.015528741E1
9.966572583E0,-8.229736176E0,-5.446274414E0,-2.345322876E0,1.014352019E1
9.976514583E0,-8.091124420E0,-5.554499359E0,-2.130220184E0,1.004273845E1
9.986456583E0,-8.068222046E0,-5.507946167E0,-1.961820374E0,9.964056259E0
9.996398583E0,-8.300089874E0,-5.295088806E0,-2.025737457E0,1.005152076E1
1.000634058E1,-8.607999573E0,-4.838089142E0,-2.207459564E0,1.011818368E1
1.001628258E1,-8.732839966E0,-4.207600250E0,-2.461331635E0,1.000122728E1
1.002622358E1,-8.747958527E0,-3.693120117E0,-2.755919037E0,9.887416463E0
1.003616558E1,-8.702303467E0,-3.306773529E0,-2.960992584E0,9.768946406E0
1.004610758E1,-8.587043152E0,-2.978206787E0,-3.022514648E0,9.578236819E0
1.005604958E1,-8.518186340E0,-2.739902344E0,-2.902164917E0,9.406865822E0
1.006599158E1,-8.613388367E0,-2.660267944E0,-2.661315765E0,9.399472660E0
1.007593358E1,-8.850944366E0,-2.614912262E0,-2.259102173E0,9.501606440E0
1.008587558E1,-9.178014221E0,-2.595901794E0,-1.870959320E0,9.719832300E0
1.009581758E1,-9.558522949E0,-2.580483856E0,-1.612446899E0,1.003116359E1
1.010575958E1,-1.011042526E1,-2.502046967E0,-1.534459076E0,1.052784416E1
1.011570158E1,-1.057999878E1,-2.372715912E0,-1.600771179E0,1.096032040E1
1.012564358E1,-1.082818268E1,-2.200873260E0,-1.653311920E0,1.117259252E1
1.013558458E1,-1.087129303E1,-2.100881195E0,-1.732796631E0,1.120719849E1
1.014552658E1,-1.071097641E1,-2.038760376E0,-1.766177216E0,1.104540364E1
1.015546858E1,-1.045635590E1,-2.044149170E0,-1.774859161E0,1.080111335E1
1.016541058E1,-1.035561539E1,-2.083666992E0,-1.720522156E0,1.070236584E1
1.017535258E1,-1.039677979E1,-2.074685669E0,-1.517095184E0,1.070975856E1
1.018529458E1,-1.044767395E1,-2.020648041E0,-1.307381287E0,1.072129448E1
1.019523658E1,-1.065125061E1,-1.986519012E0,-1.192420349E0,1.090033319E1
1.020517858E1,-1.111438751E1,-2.078278198E0,-1.100212097E0,1.136042766E1
1.021512058E1,-1.154773636E1,-2.213447113E0,-1.049766998E0,1.180472676E1
1.022506258E1,-1.197449890E1,-2.395318909E0,-1.109642487E0,1.226203421E1
1.023500358E1,-1.234557724E1,-2.455942841E0,-1.101708984E0,1.263561219E1
1.024494558E1,-1.262744110E1,-2.416724396E0,-1.123713226E0,1.290564051E1
1.025488758E1,-1.284344193E1,-2.360142059E0,-1.229094086E0,1.311620918E1
1.026482958E1,-1.311767166E1,-2.415826263E0,-1.406026154E0,1.341217491E1
1.027477158E1,-1.347198486E1,-2.438279572E0,-1.531614990E0,1.377626321E1
1.028471358E1,-1.379785721E1,-2.462379456E0,-1.615590363E0,1.410866076E1
1.029465558E1,-1.422536819E1,-2.617906036E0,-1.653461609E0,1.455845004E1
1.030459758E1,-1.465078354E1,-2.939437408E0,-1.656006317E0,1.503423119E1
1.031453958E1,-1.505673935E1,-3.268902283E0,-1.677262115E0,1.549852671E1
1.032448158E1,-1.546074921E1,-3.541934509E0,-1.750459900E0,1.595757425E1
1.033442371E1,-1.571117844E1,-3.605851593E0,-1.729802856E0,1.621220255E1
1.034436471E1,-1.578991470E1,-3.364703064E0,-1.636247406E0,1.622713587E1
1.035430671E1,-1.557047104E1,-2.923420715E0,-1.554517365E0,1.591862058E1
1.036424871E1,-1.499132538E1,-2.495161285E0,-1.424288177E0,1.526414961E1
1.037419071E1,-1.431622925E1,-2.177970886E0,-1.279688873E0,1.453738562E1
1.038413271E1,-1.355491241E1,-1.899699554E0,-1.087787933E0,1.373054229E1
1.039407471E1,-1.291080185E1,-1.762285309E0,-9.592053223E-1,1.306577701E1
1.040401671E1,-1.233988907E1,-1.835483093E0,-9.042695618E-1,1.250837975E1
1.041395871E1,-1.172960815E1,-1.961071930E0,-9.512718201E-1,1.193039935E1
1.042390071E1,-1.113639175E1,-2.143243103E0,-1.071771240E0,1.139128640E1
1.043384271E1,-1.068253555E1,-2.358944550E0,-1.213376770E0,1.100697363E1
1.044378371E1,-1.026789780E1,-2.617906036E0,-1.405876465E0,1.068923037E1
1.045372571E1,-9.935439148E0,-2.901865540E0,-1.602118378E0,1.047380341E1
1.046366771E1,-9.743687897E0,-3.098855896E0,-1.695973206E0,1.036429866E1
1.047360971E1,-9.591604156E0,-3.251688080E0,-1.754651184E0,1.027867435E1
1.048355171E1,-9.397457886E0,-3.470982056E0,-1.807790680E0,1.017978577E1
1.049349371E1,-9.210945740E0,-3.707190857E0,-1.754950562E0,1.008288832E1
1.050343571E1,-9.014853516E0,-3.881129150E0,-1.534758453E0,9.934094367E0
1.051337771E1,-8.854985962E0,-3.975133667E0,-1.214274902E0,9.781969515E0
1.052331971E1,-8.747509460E0,-3.988905029E0,-8.282276917E-1,9.649675964E0
1.053326171E1,-8.713081055E0,-3.979474640E0,-4.658312988E-1,9.590151129E0
1.054320371E1,-8.605155487E0,-3.932322693E0,-1.305285645E-1,9.461971276E0
1.055314471E1,-8.519832916E0,-3.872746582E0,1.606159973E-1,9.360102377E0
1.056308671E1,-8.562793579E0,-3.833827515E0,4.167333984E-1,9.391130604E0
1.057302871E1,-8.631051636E0,-3.821553040E0,6.530918884E-1,9.461810027E0
1.058297071E1,-8.616980896E0,-3.854933624E0,7.809260559E-1,9.472207690E0
1.059291271E1,-8.563242645E0,-3.926634521E0,7.908055115E-1,9.453727129E0
1.060285471E1,-8.483907623E0,-3.961062927E0,8.538244629E-1,9.401900036E0
1.061279671E1,-8.404123535E0,-3.954776001E0,9.183403015E-1,9.333428873E0
1.062273871E1,-8.294701080E0,-3.991898804E0,9.366023254E-1,9.252812869E0
1.063268071E1,-8.215216370E0,-4.023333435E0,1.009051666E0,9.202998272E0
1.064262271E1,-8.112529907E0,-4.016298065E0,1.149459686E0,9.124968450E0
1.065256371E1,-8.090375977E0,-4.058959351E0,1.209035797E0,9.131872864E0
1.066250571E1,-8.098758545E0,-4.118984528E0,1.064885559E0,9.148218666E0
1.067244771E1,-8.022267609E0,-4.150868225E0,7.997868347E-1,9.067863232E0
1.068238971E1,-7.945028229E0,-4.171076202E0,5.108876038E-1,8.987900555E0
1.069233171E1,-7.917635193E0,-4.168830872E0,1.977388000E-1,8.950262483E0
1.070227371E1,-7.776778107E0,-4.123774567E0,-5.388793945E-2,8.802652913E0
1.071221571E1,-7.678881683E0,-4.173022156E0,-2.049238586E-1,8.741929513E0
1.072215771E1,-7.620503082E0,-4.303999786E0,-2.920426941E-1,8.756812795E0
1.073209971E1,-7.686964874E0,-4.503385162E0,-3.716770935E-1,8.916728703E0
1.074204171E1,-7.794441376E0,-4.703219604E0,-3.930825806E-1,9.111975907E0
1.075198271E1,-7.949668579E0,-5.068160706E0,-3.875440979E-1,9.435765675E0
1.076192471E1,-8.199499054E0,-5.519322510E0,-3.751199341E-1,9.891178932E0
1.077186671E1,-8.427025909E0,-5.845643921E0,-3.204835510E-1,1.026104421E1
1.078180871E1,-8.553213501E0,-6.076164551E0,-4.073030090E-1,1.049967298E1
1.079175071E1,-8.567882996E0,-6.249204712E0,-5.330415344E-1,1.061815953E1
1.080169271E1,-8.543184357E0,-6.334078217E0,-5.769003296E-1,1.065079151E1
1.081163471E1,-8.578810272E0,-6.352190552E0,-5.813909912E-1,1.069038474E1
1.082157671E1,-8.673263855E0,-6.533762970E0,-5.194198608E-1,1.087130909E1
1.083151871E1,-8.894503784E0,-6.943011932E0,-4.866380310E-1,1.129399968E1
1.084146071E1,-9.020990753E0,-7.301666107E0,-5.866300964E-1,1.162053084E1
1.085140271E1,-9.073232117E0,-7.537126465E0,-6.590794373E-1,1.181381404E1
1.086134371E1,-9.207951965E0,-7.837551727E0,-8.114625549E-1,1.211907868E1
1.087128571E1,-9.225914612E0,-8.108937378E0,-1.030606842E0,1.232617200E1
1.088122771E1,-9.102421417E0,-8.223000183E0,-1.130898285E0,1.231871497E1
1.089116971E1,-8.802445221E0,-8.112230530E0,-1.040785675E0,1.201559657E1
1.090111171E1,-8.118068390E0,-7.640261993E0,-7.228468323E-1,1.117135378E1
1.091105371E1,-7.351063385E0,-6.931186523E0,-2.646496582E-1,1.010690452E1
1.092099571E1,-6.729855194E0,-6.215225372E0,3.727249146E-2,9.160860582E0
1.093093771E1,-6.684499512E0,-5.704337769E0,7.185058594E-3,8.787608021E0
1.094087971E1,-6.966812439E0,-5.341492310E0,-2.519261169E-1,8.782453098E0
1.095082171E1,-7.281009064E0,-5.112318878E0,-7.575746155E-1,8.928763442E0
1.096076271E1,-7.602390747E0,-4.982239380E0,-1.533261566E0,9.217914370E0
1.097070471E1,-7.924520874E0,-4.881049805E0,-2.153571625E0,9.553038732E0
1.098064671E1,-8.124355316E0,-4.741090851E0,-2.573747864E0,9.752295618E0
1.099058871E1,-8.185428314E0,-4.747078400E0,-2.930605774E0,9.905778123E0
1.100053071E1,-8.285420380E0,-4.939877472E0,-3.132535858E0,1.014215762E1
1.101047271E1,-8.348589020E0,-5.156177673E0,-3.152743835E0,1.030654649E1
1.102041471E1,-8.295599213E0,-5.300776978E0,-2.958298187E0,1.027943243E1
1.103035671E1,-8.174650726E0,-5.403463440E0,-2.745590515E0,1.017647281E1
1.104029871E1,-8.009693756E0,-5.425317993E0,-2.575095062E0,1.001101313E1
1.105024071E1,-7.753726044E0,-5.326074371E0,-2.409539337E0,9.710469380E0
1.106018171E1,-7.582182770E0,-5.159620514E0,-2.246079254E0,9.442248218E0
1.107012371E1,-7.506589966E0,-4.885091400E0,-2.257754974E0,9.236366625E0
1.108006571E1,-7.386838989E0,-4.491709442E0,-2.451751556E0,8.986207746E0
1.109000771E1,-7.416627045E0,-4.086651764E0,-2.623743896E0,8.865162796E0
1.109994971E1,-7.477700043E0,-3.678001556E0,-2.799029388E0,8.790805361E0
1.110989171E1,-7.390880585E0,-3.342549133E0,-2.899919586E0,8.614364987E0
1.111983371E1,-7.437284088E0,-3.227887573E0,-2.821033630E0,8.584327786E0
1.112977571E1,-7.559579773E0,-3.216960297E0,-2.640209656E0,8.629414054E0
1.113971771E1,-7.828570404E0,-3.226989441E0,-2.479443970E0,8.823129707E0
1.114965971E1,-8.124505005E0,-3.262315979E0,-2.365530853E0,9.068959331E0
1.115960071E1,-8.554261322E0,-3.257825317E0,-2.292183380E0,9.436255466E0
1.116954271E1,-9.051676941E0,-3.213367767E0,-2.411036224E0,9.903114840E0
1.117948471E1,-9.522747345E0,-3.119812317E0,-2.636168060E0,1.036172418E1
1.118942671E1,-9.966125336E0,-2.986140289E0,-2.906505890E0,1.080224349E1
1.119936871E1,-1.016236725E1,-2.858306122E0,-3.035387878E0,1.098440720E1
1.120931071E1,-1.023062531E1,-2.827619934E0,-2.901566162E0,1.100364552E1
1.121925271E1,-1.034124527E1,-2.939587097E0,-2.596650238E0,1.106006865E1
1.122919471E1,-1.029978149E1,-3.026256866E0,-2.065554657E0,1.093207416E1
1.123913671E1,-1.032238449E1,-3.180735626E0,-1.572480011E0,1.091519098E1
1.124907771E1,-1.039812698E1,-3.277135162E0,-1.198557587E0,1.096800802E1
1.125901971E1,-1.047312103E1,-3.206033020E0,-8.744815063E-1,1.098770357E1
1.126896171E1,-1.065738785E1,-3.091371460E0,-5.788462830E-1,1.111177557E1
1.127890371E1,-1.092548035E1,-2.937042389E0,-2.652484131E-1,1.131647894E1
1.128884571E1,-1.127156067E1,-2.777324524E0,8.831634521E-3,1.160869025E1
1.129878771E1,-1.157288406E1,-2.747835846E0,2.248324585E-1,1.189675574E1
1.130872971E1,-1.195638657E1,-2.813249817E0,2.646496582E-1,1.228574758E1
1.131867171E1,-1.237117401E1,-2.892135773E0,2.032772827E-1,1.270636523E1
1.132861371E1,-1.260663437E1,-2.925815735E0,1.107696533E-2,1.294170586E1
1.133855633E1,-1.278147079E1,-2.921624451E0,-2.712359619E-1,1.311394121E1
1.134849833E1,-1.296693512E1,-2.876418457E0,-4.893324280E-1,1.329114878E1
1.135843933E1,-1.322050781E1,-2.810256042E0,-6.550378418E-1,1.353175674E1
1.136838133E1,-1.353889572E1,-2.794389038E0,-8.044271851E-1,1.384765000E1
1.137832333E1,-1.401984558E1,-2.805166626E0,-9.186396790E-1,1.432720939E1
1.138826533E1,-1.475092529E1,-2.826272736E0,-1.067430267E0,1.505712529E1
1.139820733E1,-1.548948944E1,-2.757565613E0,-1.300345917E0,1.578668270E1
1.140814933E1,-1.610560822E1,-2.675386505E0,-1.540746002E0,1.639884774E1
1.141809133E1,-1.642624146E1,-2.608625336E0,-1.779948578E0,1.672706045E1
1.142803333E1,-1.642519363E1,-2.359692993E0,-1.944306793E0,1.670734766E1
1.143797533E1,-1.609408218E1,-1.871707764E0,-2.062710571E0,1.633332624E1
1.144791633E1,-1.554906555E1,-1.375489655E0,-2.091450806E0,1.574927229E1
1.145785833E1,-1.497036896E1,-9.801617432E-1,-2.039209442E0,1.514037777E1
1.146780033E1,-1.433658691E1,-7.679031372E-1,-1.873953094E0,1.447891915E1
1.147774233E1,-1.374516678E1,-8.289761353E-1,-1.725012817E0,1.387776929E1
1.148768433E1,-1.320538925E1,-1.162332916E0,-1.541644135E0,1.334578547E1
1.149762633E1,-1.269405258E1,-1.673819275E0,-1.427132263E0,1.288321964E1
1.150756833E1,-1.226788879E1,-2.173929291E0,-1.362915802E0,1.253333968E1
1.151751033E1,-1.175939621E1,-2.599644012E0,-1.290616150E0,1.211227634E1
1.152745233E1,-1.135299133E1,-3.006348267E0,-1.314566345E0,1.181764049E1
1.153739433E1,-1.106289459E1,-3.380570068E0,-1.428928528E0,1.165580231E1
1.154733533E1,-1.075962524E1,-3.710484009E0,-1.595681763E0,1.149275543E1
1.155727733E1,-1.037267990E1,-3.931574249E0,-1.676513672E0,1.121875494E1
1.156721933E1,-9.938283234E0,-4.117337952E0,-1.587748260E0,1.087395466E1
1.157716133E1,-9.556127930E0,-4.281097412E0,-1.439257050E0,1.056971319E1
1.158710333E1,-9.263785858E0,-4.332440643E0,-1.159937897E0,1.029238681E1
1.159704533E1,-9.095984802E0,-4.264481964E0,-8.226892090E-1,1.007966088E1
1.160698733E1,-9.062005463E0,-4.098626862E0,-5.340893555E-1,9.960117298E0
1.161692933E1,-9.072184296E0,-3.922293549E0,-3.354524231E-1,9.889461204E0
1.162687133E1,-8.972940674E0,-3.849544830E0,-2.627037048E-1,9.767377999E0
1.163681333E1,-8.922495575E0,-3.721411285E0,-1.410067749E-1,9.668490686E0
1.164675433E1,-8.928782501E0,-3.611539764E0,-5.927673340E-2,9.631712732E0
1.165669633E1,-8.880283356E0,-3.639082489E0,-1.811233521E-2,9.597014218E0
1.166663833E1,-8.757388916E0,-3.714076538E0,5.014572144E-2,9.512556951E0
1.167658033E1,-8.614585876E0,-3.861819305E0,1.431024170E-1,9.441674453E0
1.168652233E1,-8.370443573E0,-4.018693085E0,2.564167786E-1,9.288701162E0
1.169646433E1,-8.180338898E0,-4.161645813E0,4.110452271E-1,9.187284612E0
1.170640633E1,-8.001161499E0,-4.291276245E0,5.068460083E-1,9.093433346E0
1.171634833E1,-7.807314606E0,-4.361180878E0,5.545967102E-1,8.960002093E0
1.172629033E1,-7.673941956E0,-4.432582397E0,6.015989685E-1,8.882516151E0
1.173623133E1,-7.633376312E0,-4.445156250E0,5.378315735E-1,8.849695521E0
1.174617333E1,-7.646548920E0,-4.417613525E0,3.321592712E-1,8.837157316E0
1.175611533E1,-7.731123047E0,-4.349804535E0,4.505630493E-2,8.870912756E0
1.176605733E1,-7.675438843E0,-4.240831146E0,-2.157014465E-1,8.771746540E0
1.177599933E1,-7.558232574E0,-4.142485657E0,-4.140390015E-1,8.628933617E0
1.178594133E1,-7.403454437E0,-4.127217407E0,-5.492079163E-1,8.493920795E0
1.179588333E1,-7.241940308E0,-4.197421417E0,-5.189707947E-1,8.386499667E0
1.180582533E1,-7.194638672E0,-4.360282745E0,-4.683760071E-1,8.425809594E0
1.181576733E1,-7.181316376E0,-4.595743103E0,-3.981719971E-1,8.535262181E0
1.182570833E1,-7.262747040E0,-4.887336731E0,-3.077600098E-1,8.759467513E0
1.183565033E1,-7.433841248E0,-5.238356781E0,-2.749781799E-1,9.098241064E0
1.184559233E1,-7.641609192E0,-5.565875702E0,-2.704875183E-1,9.457606826E0
1.185553433E1,-7.902816010E0,-5.854176178E0,-3.769161987E-1,9.842151463E0
1.186547633E1,-8.215066681E0,-6.121520233E0,-4.278103638E-1,1.025394325E1
1.187541833E1,-8.442593536E0,-6.165379028E0,-4.122427368E-1,1.046227644E1
1.188536033E1,-8.544681244E0,-6.078559570E0,-3.802093506E-1,1.049309407E1
1.189530233E1,-8.709189148E0,-6.076164551E0,-3.698808289E-1,1.062575000E1
1.190524433E1,-8.987909546E0,-6.169121246E0,-2.414479065E-1,1.090407594E1
1.191518633E1,-9.202263794E0,-6.423592072E0,-6.421646118E-2,1.122266982E1
1.192512733E1,-9.438173218E0,-6.796167297E0,1.347198486E-2,1.163044217E1
1.193506933E1,-9.609267426E0,-7.165898438E0,5.164260864E-2,1.198710924E1
1.194501133E1,-9.666149139E0,-7.558681641E0,-9.879455566E-3,1.227062366E1
1.195495333E1,-9.519903259E0,-7.862100677E0,-1.079255676E-1,1.234717915E1
1.196489533E1,-9.091643829E0,-7.949818268E0,-1.441502380E-1,1.207801214E1
1.197483733E1,-8.446485443E0,-7.644602966E0,-2.065704346E-2,1.139225603E1
1.198477933E1,-7.816894684E0,-7.025041351E0,2.582130432E-1,1.051293120E1
1.199472133E1,-7.387886810E0,-6.285130005E0,5.310955811E-1,9.714205743E0
1.200466333E1,-7.059918823E0,-5.558690643E0,6.331832886E-1,9.007908555E0
1.201460533E1,-7.057074738E0,-5.074896698E0,5.138813782E-1,8.707522863E0
1.202454633E1,-7.246131592E0,-4.772525482E0,2.597099304E-1,8.680487992E0
1.203448833E1,-7.443121948E0,-4.615801392E0,-6.511459351E-2,8.758420333E0
1.204443033E1,-7.740104370E0,-4.600682831E0,-4.914280701E-1,9.017593898E0
1.205437233E1,-8.101752319E0,-4.706662445E0,-8.825646973E-1,9.411162652E0
1.206431433E1,-8.266260223E0,-4.817132721E0,-1.314117279E0,9.657263068E0
1.207425633E1,-8.199948120E0,-4.947062531E0,-1.882036285E0,9.759848228E0
1.208419833E1,-8.067922668E0,-5.117258606E0,-2.437381439E0,9.859946253E0
1.209414033E1,-7.977810059E0,-5.272785187E0,-2.801873474E0,9.964848816E0
1.210408233E1,-7.999963989E0,-5.434598694E0,-3.003504181E0,1.012696026E1
1.211402333E1,-7.994275818E0,-5.574407959E0,-3.006947021E0,1.019922548E1
1.212396533E1,-7.928412781E0,-5.651347961E0,-2.853216705E0,1.014585179E1
1.213390733E1,-7.794441376E0,-5.631439362E0,-2.792293396E0,1.001315775E1
1.214384933E1,-7.624394989E0,-5.539530487E0,-2.843037872E0,9.843813352E0
1.215379133E1,-7.386689301E0,-5.346731415E0,-2.959795074E0,9.587027826E0
1.216373333E1,-7.308851166E0,-5.171296234E0,-3.099454651E0,9.474609714E0
1.217367533E1,-7.369774475E0,-4.919968872E0,-3.209775238E0,9.424559756E0
1.218361733E1,-7.476801910E0,-4.586312714E0,-3.225791931E0,9.345724407E0
1.219355933E1,-7.541168060E0,-4.284091187E0,-3.237317963E0,9.257585031E0
1.220350033E1,-7.486082611E0,-4.073778534E0,-3.264411621E0,9.126526592E0
1.221344233E1,-7.432643738E0,-3.960613861E0,-3.288661194E0,9.041346556E0
1.222338433E1,-7.541317749E0,-3.883524170E0,-3.202141113E0,9.066804348E0
1.223332633E1,-7.804919586E0,-3.763922882E0,-3.028502197E0,9.179090955E0
1.224326833E1,-8.160430298E0,-3.722908173E0,-2.931503906E0,9.436439109E0
1.225321033E1,-8.491392059E0,-3.684887238E0,-2.977458344E0,9.723548285E0
1.226315233E1,-8.918453979E0,-3.604654083E0,-2.995420990E0,1.007496399E1
1.227309433E1,-9.484427032E0,-3.461551666E0,-2.991978149E0,1.053036701E1
1.228303633E1,-9.955347748E0,-3.300636292E0,-2.967578888E0,1.089998501E1
1.229297733E1,-1.014485367E1,-3.181933136E0,-2.893482971E0,1.101884741E1
1.230291933E1,-1.016895355E1,-3.216361542E0,-2.748135223E0,1.101384788E1
1.231286133E1,-1.020547760E1,-3.409459991E0,-2.405797119E0,1.102560884E1
1.232280333E1,-1.015488281E1,-3.640429688E0,-1.997745667E0,1.097111485E1
1.233274533E1,-1.009964767E1,-3.727548523E0,-1.732946320E0,1.090415536E1
1.234268633E1,-1.023122406E1,-3.743565216E0,-1.590292969E0,1.101005259E1
1.235262833E1,-1.041399399E1,-3.662733307E0,-1.462159424E0,1.113574408E1
1.236257033E1,-1.068537964E1,-3.530109100E0,-1.308728485E0,1.132924439E1
1.237251233E1,-1.102741837E1,-3.424428864E0,-1.166823578E0,1.160569456E1
1.238245333E1,-1.129551086E1,-3.391347656E0,-9.984237671E-1,1.183582083E1
1.239239533E1,-1.162317947E1,-3.417842560E0,-7.454498291E-1,1.213818950E1
1.240233733E1,-1.194486053E1,-3.438649292E0,-5.041516113E-1,1.244018372E1
1.241227933E1,-1.240724899E1,-3.392694855E0,-3.463796997E-1,1.286740785E1
1.242222133E1,-1.285257294E1,-3.273243256E0,-2.588117981E-1,1.326535850E1
1.243216333E1,-1.313892746E1,-3.167862396E0,-3.676354980E-1,1.352042613E1
1.244210533E1,-1.332648743E1,-3.160677338E0,-5.466632080E-1,1.370707806E1
1.245204733E1,-1.358859238E1,-3.240461426E0,-7.729925537E-1,1.399099534E1
1.246198933E1,-1.408286453E1,-3.369642792E0,-1.019080811E0,1.451620101E1
1.247193133E1,-1.465632202E1,-3.435206451E0,-1.271006927E0,1.510708037E1
1.248187233E1,-1.506991196E1,-3.460653534E0,-1.540895691E0,1.553874927E1
1.249181433E1,-1.537378006E1,-3.465742950E0,-1.588347015E0,1.583942340E1
1.250175633E1,-1.542691956E1,-3.237767029E0,-1.457070007E0,1.583022537E1
1.251169833E1,-1.529579224E1,-2.801125031E0,-1.341660004E0,1.560793430E1
1.252164033E1,-1.512320114E1,-2.383194122E0,-1.283880157E0,1.536356649E1
1.253158233E1,-1.495599884E1,-1.971250763E0,-1.122066650E0,1.512702100E1
1.254152433E1,-1.471155716E1,-1.477727051E0,-8.346643066E-1,1.480912745E1
1.255146633E1,-1.439661209E1,-1.063089294E0,-5.771997070E-1,1.444734433E1
1.256140833E1,-1.403451508E1,-9.027726746E-1,-4.755610657E-1,1.407155891E1
1.257134933E1,-1.342558136E1,-9.876461792E-1,-4.191284180E-1,1.346838329E1
1.258129133E1,-1.270004013E1,-1.257834320E0,-4.688250732E-1,1.277078555E1
1.259123333E1,-1.203796692E1,-1.696571960E0,-6.494993591E-1,1.217427014E1
1.260117533E1,-1.147723297E1,-2.103575592E0,-8.364605713E-1,1.169835772E1
1.261111733E1,-1.090766739E1,-2.496358795E0,-9.824070740E-1,1.123272624E1
1.262105933E1,-1.043539948E1,-2.883603516E0,-1.034798126E0,1.087582358E1
1.263100133E1,-1.003378464E1,-3.243904266E0,-1.086291046E0,1.060093285E1
1.264094333E1,-9.822274475E0,-3.565435638E0,-1.125210114E0,1.050978139E1
1.265088433E1,-9.645342407E0,-3.857328644E0,-1.093326416E0,1.044542852E1
1.266082633E1,-9.446256409E0,-4.077820129E0,-1.024918671E0,1.033976960E1
1.267076833E1,-9.296268311E0,-4.258344727E0,-9.710307312E-1,1.027117350E1
1.268071033E1,-9.255702667E0,-4.393813019E0,-8.997789001E-1,1.028509731E1
1.269065233E1,-9.234895935E0,-4.437522125E0,-8.571176147E-1,1.028151527E1
1.270059433E1,-9.244775391E0,-4.392316132E0,-7.825726318E-1,1.026502474E1
1.271053633E1,-9.341174927E0,-4.265679474E0,-7.551795959E-1,1.029678914E1
1.272047833E1,-9.456584930E0,-4.107308807E0,-7.768844604E-1,1.033927143E1
1.273042033E1,-9.513167267E0,-3.978127441E0,-8.334667969E-1,1.034507208E1
1.274036133E1,-9.527387695E0,-3.834875336E0,-8.059240723E-1,1.030179105E1
1.275030333E1,-9.461524658E0,-3.691024475E0,-7.497908020E-1,1.018362886E1
1.276024533E1,-9.422755280E0,-3.638932800E0,-6.497987366E-1,1.012187667E1
1.277018733E1,-9.333391113E0,-3.646117859E0,-4.478686523E-1,1.003030166E1
1.278012933E1,-9.225914612E0,-3.714525604E0,-1.701960754E-1,9.947068291E0
1.279007133E1,-9.097182312E0,-3.799997864E0,1.050814819E-1,9.859500591E0
1.280001333E1,-9.033414917E0,-3.946992188E0,3.106040955E-1,9.862951247E0
1.280995533E1,-8.908275146E0,-4.035308533E0,4.623884583E-1,9.790550757E0
1.281989733E1,-8.796307983E0,-4.116140442E0,5.203179932E-1,9.725655612E0
1.282983833E1,-8.589887238E0,-4.219425659E0,4.676275635E-1,9.581669541E0
1.283978033E1,-8.346643066E0,-4.318968658E0,4.436773682E-1,9.408336216E0
1.284972233E1,-8.217910767E0,-4.397854614E0,3.861968994E-1,9.328683220E0
1.285966433E1,-8.009693756E0,-4.462969208E0,3.550616455E-1,9.176020760E0
1.286960633E1,-7.758216705E0,-4.564607849E0,3.044668579E-1,9.006568233E0
1.287954833E1,-7.610174561E0,-4.692292328E0,1.999841309E-1,8.942726530E0
1.288949033E1,-7.492219849E0,-4.863236847E0,3.832031250E-2,8.932295301E0
1.289943233E1,-7.543563080E0,-5.113965454E0,-1.261875916E-1,9.114489010E0
1.290937433E1,-7.745493164E0,-5.432503052E0,-2.721340942E-1,9.464608324E0
1.291931533E1,-7.958649902E0,-5.793701935E0,-4.920268250E-1,9.856428398E0
1.292925733E1,-8.197253723E0,-6.175258484E0,-7.286846924E-1,1.028881759E1
1.293919933E1,-8.454119568E0,-6.514902191E0,-8.705895996E-1,1.070859536E1
1.294914133E1,-8.496032410E0,-6.701114960E0,-9.629475403E-1,1.086346061E1
1.295908333E1,-8.272696838E0,-6.765630798E0,-1.030307465E0,1.073651743E1
1.296902533E1,-8.135581970E0,-6.802454224E0,-9.747729492E-1,1.064947228E1
1.297896733E1,-7.940836945E0,-6.755002899E0,-7.629634094E-1,1.045318462E1
1.298890933E1,-7.870932312E0,-6.883286133E0,-4.302053833E-1,1.046500263E1
1.299885133E1,-8.016280060E0,-7.289990387E0,-2.255809021E-1,1.083769314E1
1.300879233E1,-8.013435974E0,-7.625442810E0,-1.237925720E-1,1.106245266E1
1.301873433E1,-7.833510132E0,-7.785759430E0,-5.239105225E-2,1.104466730E1
1.302867633E1,-7.783963165E0,-8.028704224E0,-1.459465027E-1,1.118353587E1
1.303861833E1,-7.868088226E0,-8.358019409E0,-2.956352234E-1,1.148262605E1
1.304856033E1,-7.659571838E0,-8.419391785E0,-4.939727783E-1,1.139294553E1
1.305850233E1,-7.276069336E0,-8.262967072E0,-5.177732849E-1,1.102206419E1
1.306844433E1,-6.809639282E0,-7.881709900E0,-2.716850281E-1,1.041951778E1
1.307838633E1,-6.123166809E0,-7.295828247E0,1.366658020E-1,9.525804907E0
1.308832733E1,-5.780679016E0,-6.824308777E0,5.480104065E-1,8.960343496E0
1.309826933E1,-5.865851898E0,-6.449338531E0,8.092172241E-1,8.755399391E0
1.310821133E1,-6.400390320E0,-6.209986267E0,8.140072632E-1,8.954972558E0
1.311815333E1,-7.128775635E0,-6.156098328E0,5.993536377E-1,9.438019573E0
1.312809533E1,-7.661068726E0,-6.090235291E0,-3.966751099E-2,9.786956290E0
1.313803733E1,-8.063282318E0,-5.975274353E0,-9.261241150E-1,1.007859768E1
1.314797933E1,-8.620124359E0,-5.872887268E0,-1.897154846E0,1.060172370E1
1.315792133E1,-9.020391998E0,-5.719606018E0,-2.833457794E0,1.105033248E1
1.316786333E1,-9.093739471E0,-5.687872009E0,-3.592080231E0,1.131154392E1
1.317780433E1,-8.946445770E0,-5.767805786E0,-4.254602509E0,1.146333800E1
1.318774633E1,-8.726103973E0,-5.777834930E0,-4.602928162E0,1.143307547E1
1.319768833E1,-8.441096649E0,-5.815257111E0,-4.614603882E0,1.124116973E1
1.320763033E1,-8.198900299E0,-5.880820770E0,-4.446054382E0,1.102603368E1
1.321757233E1,-7.961943054E0,-5.980513458E0,-4.072880402E0,1.075859811E1
1.322751433E1,-7.736811218E0,-5.985153809E0,-3.342249756E0,1.033687319E1
1.323745633E1,-7.615862732E0,-5.919440460E0,-2.551294556E0,9.977486879E0
1.324739833E1,-7.551795959E0,-5.840704193E0,-2.049987030E0,9.764522237E0
1.325733933E1,-7.696395264E0,-5.643713837E0,-1.846709747E0,9.720922941E0
1.326728133E1,-8.199349365E0,-5.270090790E0,-1.938019867E0,9.937761717E0
1.327722333E1,-8.705297241E0,-4.753814392E0,-2.174528046E0,1.015428597E1
1.328716533E1,-8.681197357E0,-4.141288147E0,-2.543211365E0,9.948938592E0
1.329710733E1,-8.638685760E0,-3.832180939E0,-3.088677063E0,9.942455854E0
1.330704933E1,-8.828341370E0,-3.680396576E0,-3.469036102E0,1.017443570E1
1.331699133E1,-9.020841064E0,-3.571572876E0,-3.493585052E0,1.031197570E1
1.332693333E1,-9.284891968E0,-3.529660034E0,-3.315754852E0,1.047196013E1
1.333687588E1,-9.748028870E0,-3.556304626E0,-3.010539551E0,1.080438419E1
1.334681688E1,-1.013153137E1,-3.610042877E0,-2.531835022E0,1.104945818E1
1.335675888E1,-1.067550018E1,-3.686833191E0,-2.031126251E0,1.147538744E1
1.336670087E1,-1.117815491E1,-3.636088715E0,-1.669777679E0,1.187267644E1
1.337664287E1,-1.146076721E1,-3.494932251E0,-1.470392303E0,1.207169375E1
1.338658487E1,-1.155686737E1,-3.262016602E0,-1.474284210E0,1.209857222E1
1.339652688E1,-1.149699188E1,-3.123704224E0,-1.541494446E0,1.201309933E1
1.340646888E1,-1.134999756E1,-3.071762238E0,-1.572929077E0,1.186306342E1
1.341641088E1,-1.126257935E1,-3.023562469E0,-1.435814209E0,1.174943343E1
1.342635188E1,-1.121452927E1,-3.033890991E0,-1.201551361E0,1.167963556E1
1.343629388E1,-1.134640503E1,-3.054248657E0,-8.705895996E-1,1.178249839E1
1.344623588E1,-1.165925446E1,-3.060984650E0,-4.905299377E-1,1.206434669E1
1.345617787E1,-1.184861069E1,-2.974165192E0,-1.911524963E-1,1.221768280E1
1.346611987E1,-1.202943466E1,-2.941533051E0,-1.302291870E-2,1.238386388E1
1.347606188E1,-1.210338089E1,-2.961441650E0,8.771759033E-2,1.246072470E1
1.348600388E1,-1.218466187E1,-2.939138031E0,-2.065704346E-2,1.253415110E1
1.349594588E1,-1.219618790E1,-2.916984100E0,-3.698808289E-1,1.254562104E1
1.350588788E1,-1.221729401E1,-2.880759430E0,-7.716453552E-1,1.257602816E1
1.351582888E1,-1.230097000E1,-2.712209930E0,-9.557624817E-1,1.263263344E1
1.352577088E1,-1.244721588E1,-2.505639496E0,-1.069525909E0,1.274187185E1
1.353571287E1,-1.287427780E1,-2.426154785E0,-1.171463928E0,1.315315870E1
1.354565487E1,-1.346569794E1,-2.442021790E0,-1.196761322E0,1.373756634E1
1.355559687E1,-1.403197037E1,-2.529889069E0,-1.172212372E0,1.430631374E1
1.356553888E1,-1.447459991E1,-2.585722961E0,-1.063238983E0,1.474213292E1
1.357548088E1,-1.493968277E1,-2.710413666E0,-9.809101868E-1,1.521521108E1
1.358542288E1,-1.556433380E1,-2.898273010E0,-9.614506531E-1,1.586104853E1
1.359536388E1,-1.616982468E1,-2.919079742E0,-9.012757874E-1,1.645589726E1
1.360530588E1,-1.650946838E1,-2.648143158E0,-9.104067993E-1,1.674526945E1
1.361524788E1,-1.660227539E1,-2.300116882E0,-9.931846619E-1,1.679025019E1
1.362518987E1,-1.638492737E1,-1.918260956E0,-1.134490814E0,1.653579872E1
1.363513187E1,-1.589514587E1,-1.569336548E0,-1.319057007E0,1.602680227E1
1.364507387E1,-1.533575912E1,-1.390458527E0,-1.478475494E0,1.546947874E1
1.365501588E1,-1.467203934E1,-1.419348450E0,-1.592388611E0,1.482629387E1
1.366495788E1,-1.411130539E1,-1.759141846E0,-1.751956787E0,1.432804496E1
1.367489888E1,-1.360790222E1,-2.286195831E0,-1.909579010E0,1.393011796E1
1.368484088E1,-1.308743454E1,-2.780168610E0,-1.981429596E0,1.352539624E1
1.369478288E1,-1.269599854E1,-3.286864929E0,-1.927391968E0,1.325544038E1
1.370472488E1,-1.232492020E1,-3.814218292E0,-1.932481384E0,1.304555109E1
1.371466687E1,-1.201506454E1,-4.328249359E0,-1.963916016E0,1.292100943E1
1.372460887E1,-1.162871796E1,-4.754113770E0,-1.968107300E0,1.271621506E1
1.373455088E1,-1.122710312E1,-5.145100708E0,-1.884880371E0,1.249290518E1
1.374449288E1,-1.094404175E1,-5.500761108E0,-1.766925659E0,1.237547772E1
1.375443488E1,-1.058149567E1,-5.699996796E0,-1.551972656E0,1.211885445E1
1.376437588E1,-1.018212616E1,-5.731431427E0,-1.208287354E0,1.174669986E1
1.377431788E1,-9.840237122E0,-5.739215240E0,-9.363029480E-1,1.143002718E1
1.378425988E1,-9.540709991E0,-5.661526794E0,-7.198530579E-1,1.111738374E1
1.379420187E1,-9.423803101E0,-5.534441071E0,-4.685256958E-1,1.093881251E1
1.380414387E1,-9.429940338E0,-5.369035034E0,-2.866539001E-1,1.085506713E1
1.381408587E1,-9.426946564E0,-5.187911682E0,-2.224374390E-1,1.076249170E1
1.382402788E1,-9.290580139E0,-5.054539032E0,-2.152523804E-1,1.057873233E1
1.383396988E1,-9.163793793E0,-5.001848602E0,-2.052232361E-1,1.044201718E1
1.384391088E1,-9.114246826E0,-4.971761169E0,-1.908531189E-1,1.038384944E1
1.385385288E1,-9.002279663E0,-4.959037628E0,-1.549278259E-1,1.027896376E1
1.386379488E1,-8.868757324E0,-5.031037903E0,-1.190025330E-1,1.019707607E1
1.387373688E1,-8.752449188E0,-5.202880554E0,-3.293151855E-2,1.018216172E1
1.388367887E1,-8.616531830E0,-5.340743866E0,9.624984741E-2,1.013792039E1
1.389362087E1,-8.433163147E0,-5.405110016E0,1.269360352E-1,1.001746314E1
1.390356287E1,-8.180787964E0,-5.419180756E0,1.170565796E-1,9.813588233E0
1.391350488E1,-7.904911652E0,-5.334756317E0,1.137634277E-1,9.537305453E0
1.392344587E1,-7.646249542E0,-5.292843475E0,7.185058594E-2,9.299703577E0
1.393338788E1,-7.455546112E0,-5.289250946E0,7.918533325E-2,9.141532351E0
1.394332988E1,-7.332202606E0,-5.304519196E0,1.728904724E-1,9.051464526E0
1.395327188E1,-7.290738831E0,-5.348078613E0,2.492317200E-1,9.045381916E0
1.396321388E1,-7.233557739E0,-5.353168030E0,1.871109009E-1,9.000876402E0
1.397315587E1,-7.104526062E0,-5.345982971E0,4.954696655E-2,8.891359817E0
1.398309787E1,-6.998396759E0,-5.417683868E0,-1.225950623E-1,8.851208123E0
1.399303988E1,-6.931934967E0,-5.564678192E0,-2.269281006E-1,8.892067371E0
1.400298087E1,-7.029082947E0,-5.815406799E0,-3.212319946E-1,9.128535113E0
1.401292288E1,-7.206913147E0,-6.183790741E0,-4.367916870E-1,9.506295389E0
1.402286488E1,-7.323370972E0,-6.456673279E0,-5.060975647E-1,9.776324819E0
1.403280688E1,-7.419171753E0,-6.641239471E0,-5.734574890E-1,9.973917220E0
1.404274888E1,-7.477999420E0,-6.762786713E0,-6.158193970E-1,1.010123720E1
1.405269087E1,-7.410340118E0,-6.719376984E0,-6.421646118E-1,1.002374895E1
1.406263287E1,-7.348518677E0,-6.670428772E0,-6.502478027E-1,9.945761356E0
1.407257487E1,-7.253166962E0,-6.692283325E0,-5.447172546E-1,9.883916429E0
1.408251587E1,-7.182214508E0,-6.855294342E0,-3.821553040E-1,9.936061012E0
1.409245787E1,-7.266638947E0,-7.244185638E0,-1.996847534E-1,1.026265761E1
1.410239988E1,-7.283853149E0,-7.680827637E0,-3.652404785E-2,1.058541279E1
1.411234188E1,-7.118447113E0,-7.894283752E0,4.894821167E-2,1.062988246E1
1.412228388E1,-6.985523529E0,-7.991731110E0,5.987548828E-4,1.061439143E1
1.413222588E1,-7.114704895E0,-8.217611389E0,-2.110610962E-1,1.087164705E1
1.414216787E1,-7.228019257E0,-8.373886414E0,-4.394860840E-1,1.107065418E1
1.415210987E1,-7.078330536E0,-8.304730225E0,-6.331832886E-1,1.093033524E1
1.416205087E1,-6.777007141E0,-8.001161499E0,-7.448510742E-1,1.051195578E1
1.417199287E1,-6.388265533E0,-7.548353119E0,-5.346881104E-1,9.903204669E0
1.418193487E1,-6.234235840E0,-7.233258362E0,-3.233276367E-1,9.554593858E0
1.419187688E1,-6.452481995E0,-7.076534271E0,-2.296224976E-1,9.579383470E0
1.420181888E1,-6.921456757E0,-6.944059753E0,-6.152206421E-2,9.804606798E0
1.421176088E1,-7.566465454E0,-6.798562317E0,-9.280700684E-3,1.017211557E1
1.422170288E1,-8.072862396E0,-6.618786163E0,-1.422042847E-1,1.044029021E1
1.423164487E1,-8.342302094E0,-6.350993042E0,-4.028123474E-1,1.049244369E1
1.424158588E1,-8.437504120E0,-6.115682373E0,-9.189390564E-1,1.046123777E1
1.425152787E1,-8.378975830E0,-6.131250000E0,-1.655108185E0,1.051374556E1
1.426146987E1,-8.326435089E0,-6.273753662E0,-2.390828247E0,1.069605376E1
1.427141188E1,-8.347241821E0,-6.389612732E0,-2.968027954E0,1.092303927E1
1.428135388E1,-8.462502136E0,-6.400540009E0,-3.287463684E0,1.110802738E1
1.429129588E1,-8.652157745E0,-6.420897675E0,-3.357667694E0,1.128546379E1
1.430123788E1,-8.990154877E0,-6.463708649E0,-3.238515472E0,1.153648112E1
1.431117987E1,-9.241631927E0,-6.370003510E0,-3.138224030E0,1.165474819E1
1.432112088E1,-9.479187927E0,-6.114933929E0,-3.220552826E0,1.173112873E1
1.433106287E1,-9.744885406E0,-5.767506409E0,-3.391347656E0,1.182066668E1
1.434100483E1,-9.895771637E0,-5.326673126E0,-3.529660034E0,1.177956887E1
1.435094683E1,-9.872270508E0,-4.930447083E0,-3.567082214E0,1.159720263E1
1.436088883E1,-9.872420197E0,-4.571792908E0,-3.541784821E0,1.144160000E1
1.437083083E1,-9.966275024E0,-4.255800018E0,-3.434458008E0,1.136811213E1
1.438077283E1,-1.004351440E1,-3.955374756E0,-3.223696289E0,1.126540673E1
1.439071483E1,-1.026625122E1,-3.713178406E0,-2.980751495E0,1.131673484E1
1.440065583E1,-1.070888077E1,-3.547922058E0,-2.856509857E0,1.163733332E1
1.441059783E1,-1.101080292E1,-3.315006409E0,-2.937341766E0,1.186823597E1
1.442053983E1,-1.125180176E1,-3.100502472E0,-3.037184143E0,1.205987752E1
1.443048183E1,-1.141047180E1,-2.982697449E0,-3.041375427E0,1.217970916E1
1.444042383E1,-1.148651367E1,-2.815495148E0,-3.030597839E0,1.220866629E1
1.445036583E1,-1.139146133E1,-2.590513000E0,-3.018772430E0,1.206603232E1
1.446030783E1,-1.127186005E1,-2.429148560E0,-2.913241882E0,1.189296304E1
1.447024983E1,-1.124267075E1,-2.348466339E0,-2.750979309E0,1.181020012E1
1.448019083E1,-1.117695740E1,-2.350861359E0,-2.555485840E0,1.170390677E1
1.449013283E1,-1.121228394E1,-2.401007080E0,-2.319277039E0,1.169868335E1
1.450007483E1,-1.130239655E1,-2.477348328E0,-2.092348938E0,1.175837346E1
1.451001683E1,-1.125928619E1,-2.578837280E0,-1.840722198E0,1.169658863E1
1.451995883E1,-1.114282837E1,-2.614463196E0,-1.480271759E0,1.154076455E1
1.452990083E1,-1.109058701E1,-2.663860474E0,-1.080153809E0,1.145705045E1
1.453984283E1,-1.112411728E1,-2.695744171E0,-6.724017334E-1,1.146582513E1
1.454978483E1,-1.115630035E1,-2.699336700E0,-3.237767029E-1,1.148278222E1
1.455972583E1,-1.114118179E1,-2.717449036E0,-1.362167358E-1,1.146861003E1
1.456966783E1,-1.131033005E1,-2.908152466E0,-1.224453735E-1,1.167886593E1
1.457960983E1,-1.164353714E1,-3.218457184E0,-2.586621094E-1,1.208293548E1
1.458955183E1,-1.199335968E1,-3.351680145E0,-4.165837097E-1,1.245985466E1
1.459949383E1,-1.230381409E1,-3.307521973E0,-5.861810303E-1,1.275410330E1
1.460943583E1,-1.259196487E1,-3.189567261E0,-8.183482361E-1,1.301539905E1
1.461937783E1,-1.287128403E1,-2.976410522E0,-1.056652679E0,1.325313121E1
1.462931983E1,-1.317245773E1,-2.763702850E0,-1.216220856E0,1.351409965E1
1.463926083E1,-1.356254654E1,-2.691403198E0,-1.333277435E0,1.389114641E1
1.464920283E1,-1.386416931E1,-2.844385071E0,-1.350641327E0,1.421724126E1
1.465914483E1,-1.400113449E1,-3.000809784E0,-1.206640778E0,1.436985067E1
1.466908683E1,-1.409888123E1,-3.085832977E0,-1.040037231E0,1.447005509E1
1.467902883E1,-1.432191742E1,-3.204236755E0,-9.921368408E-1,1.470947950E1
1.468897083E1,-1.452279968E1,-3.405717773E0,-9.452842712E-1,1.494671156E1
1.469891283E1,-1.461171478E1,-3.558100891E0,-8.656498718E-1,1.506358658E1
1.470885383E1,-1.461575638E1,-3.659140778E0,-8.418493652E-1,1.509033983E1
1.471879583E1,-1.453971451E1,-3.623664551E0,-8.147557068E-1,1.500660087E1
1.472873783E1,-1.420740555E1,-3.312461700E0,-7.759863281E-1,1.460907012E1
1.473867983E1,-1.375818970E1,-2.877915344E0,-8.779243469E-1,1.408335655E1
1.474862183E1,-1.339564362E1,-2.611619110E0,-1.087488556E0,1.369110856E1
1.475856383E1,-1.306108932E1,-2.544857941E0,-1.303339691E0,1.337037960E1
1.476850583E1,-1.268581970E1,-2.622845764E0,-1.464853821E0,1.303668432E1
1.477844783E1,-1.225082428E1,-2.865940247E0,-1.585951996E0,1.268114950E1
1.478838883E1,-1.189366699E1,-3.130140839E0,-1.598376160E0,1.240209267E1
1.479833083E1,-1.156524994E1,-3.420087891E0,-1.573228455E0,1.216252667E1
1.480827283E1,-1.132619705E1,-3.776796112E0,-1.600920868E0,1.204615607E1
1.481821483E1,-1.112651230E1,-4.115691376E0,-1.658850403E0,1.197873015E1
1.482815683E1,-1.089524323E1,-4.413871307E0,-1.693877563E0,1.187677591E1
1.483809883E1,-1.068912186E1,-4.692442017E0,-1.705553284E0,1.179767986E1
1.484804083E1,-1.035726196E1,-4.916526031E0,-1.641037445E0,1.158180070E1
1.485798283E1,-9.974058838E0,-5.044809265E0,-1.483714600E0,1.127534298E1
1.486792383E1,-9.618398438E0,-5.109923859E0,-1.304537201E0,1.096935402E1
1.487786583E1,-9.332642670E0,-5.066514130E0,-1.108744354E0,1.067694238E1
1.488780783E1,-9.113947449E0,-5.055886230E0,-8.285270691E-1,1.045526091E1
1.489774983E1,-9.087302856E0,-5.085973663E0,-5.402265930E-1,1.042775364E1
1.490769183E1,-9.108259277E0,-5.138215027E0,-2.695893860E-1,1.046108595E1
1.491763383E1,-9.101373596E0,-5.205275574E0,-3.008743286E-2,1.048478900E1
1.492757583E1,-9.073681183E0,-5.265001373E0,1.407073975E-1,1.049150743E1
1.493751683E1,-9.026379547E0,-5.341941376E0,3.203338623E-1,1.049354464E1
1.494745883E1,-8.941056976E0,-5.367687836E0,4.724176025E-1,1.043924092E1
1.495740083E1,-8.756041718E0,-5.376968536E0,5.562432861E-1,1.029026063E1
1.496734283E1,-8.539292450E0,-5.392236786E0,6.858737183E-1,1.012255678E1
1.497728483E1,-8.311166840E0,-5.378914490E0,7.294331360E-1,9.926746094E0
1.498722683E1,-8.095016327E0,-5.398972778E0,7.367678833E-1,9.758126014E0
1.499716883E1,-7.882009277E0,-5.411696320E0,7.321275330E-1,9.588980031E0
1.500711083E1,-7.692503357E0,-5.478906555E0,7.017407227E-1,9.470241020E0
1.501705183E1,-7.574848022E0,-5.583688660E0,5.670208740E-1,9.427481863E0
1.502699383E1,-7.374564514E0,-5.603297882E0,3.547622681E-1,9.268603196E0
1.503693583E1,-7.154222717E0,-5.522016907E0,7.005432129E-2,9.037725434E0
1.504687783E1,-6.930587769E0,-5.367837524E0,-1.425036621E-1,8.767384661E0
1.505681983E1,-6.700665894E0,-5.206772461E0,-3.649411011E-1,8.493679114E0
1.506676183E1,-6.484066315E0,-5.029241638E0,-5.173242188E-1,8.222165881E0
1.507670383E1,-6.318211212E0,-4.864883423E0,-5.614823914E-1,7.993881793E0
1.508664483E1,-6.200256500E0,-4.800517273E0,-5.562432861E-1,7.861141988E0
1.509658683E1,-6.209986267E0,-4.860392761E0,-5.219645691E-1,7.903150906E0
1.510652883E1,-6.331383820E0,-5.049898682E0,-5.077441406E-1,8.114536455E0
1.511647083E1,-6.441704407E0,-5.275629272E0,-5.652246094E-1,8.345495716E0
1.512641283E1,-6.522087250E0,-5.525759125E0,-7.223977661E-1,8.578665079E0
1.513635483E1,-6.494394836E0,-5.732179871E0,-8.547225952E-1,8.704343805E0
1.514629683E1,-6.463708649E0,-5.930367737E0,-1.041234741E0,8.833626706E0
1.515623883E1,-6.458319855E0,-6.224655762E0,-1.125659180E0,9.040096420E0
1.516617983E1,-6.484964447E0,-6.507268066E0,-1.070723419E0,9.249094562E0
1.517612183E1,-6.556365967E0,-6.733747101E0,-7.731422424E-1,9.430113130E0
1.518606383E1,-6.669231262E0,-6.863078156E0,-3.649411011E-1,9.576725401E0
1.519600583E1,-6.876849518E0,-6.916217651E0,4.490661621E-2,9.753314436E0
1.520594783E1,-7.212451630E0,-7.031028900E0,2.585124207E-1,1.007579548E1
1.521588983E1,-7.598798218E0,-7.157515869E0,2.647993469E-1,1.044231231E1
1.522583183E1,-7.919132080E0,-7.101681976E0,4.864883423E-2,1.063714748E1
1.523577283E1,-8.266409912E0,-7.066804504E0,-4.894821167E-1,1.088636080E1
1.524571483E1,-8.624465332E0,-7.196584625E0,-9.113049316E-1,1.126954787E1
1.525565683E1,-8.662336578E0,-7.406897278E0,-1.236728210E0,1.146419203E1
1.526559883E1,-8.377778320E0,-7.597600708E0,-1.552272034E0,1.141578970E1
1.527554083E1,-7.884553986E0,-7.489525452E0,-1.430724792E0,1.096841632E1
1.528548283E1,-7.425758057E0,-7.052135010E0,-1.077459412E0,1.029734964E1
1.529542483E1,-7.457192688E0,-6.510561218E0,-7.032376099E-1,9.924297119E0
1.530536683E1,-7.966134338E0,-6.029461670E0,-2.791694641E-1,9.994580527E0
1.531530783E1,-8.548124084E0,-5.610632629E0,-4.191284180E-2,1.022503695E1
1.532524983E1,-9.207203522E0,-5.330864410E0,9.175918579E-2,1.063950806E1
1.533519183E1,-9.742490387E0,-5.180876312E0,-3.951782227E-2,1.103445332E1
1.534513371E1,-9.950557709E0,-5.170847168E0,-4.596940613E-1,1.122330512E1
1.535507571E1,-9.940977631E0,-5.354964294E0,-1.131047974E0,1.134803720E1
1.536501771E1,-9.717492371E0,-5.538033600E0,-1.996548157E0,1.136158786E1
1.537495971E1,-9.483678589E0,-5.677244110E0,-2.725532227E0,1.138419019E1
1.538490071E1,-9.157955933E0,-5.710175629E0,-3.108885040E0,1.123118109E1
1.539484271E1,-8.741372223E0,-5.759872284E0,-3.345692596E0,1.099005805E1
1.540478471E1,-8.605754242E0,-5.840704193E0,-3.411855011E0,1.094593925E1
1.541472671E1,-8.629854126E0,-5.830375671E0,-3.094065857E0,1.086466319E1
1.542466871E1,-8.641380157E0,-5.857619019E0,-2.679428101E0,1.077796301E1
1.543461071E1,-8.722062378E0,-5.942492523E0,-2.314636688E0,1.080486615E1
1.544455271E1,-8.680299225E0,-5.921386414E0,-2.123184814E0,1.071999652E1
1.545449471E1,-8.662486267E0,-5.812263336E0,-2.163151703E0,1.065365190E1
1.546443571E1,-8.832981720E0,-5.599405975E0,-2.365830231E0,1.072250279E1
1.547437771E1,-9.126820679E0,-5.158722382E0,-2.699486389E0,1.082582556E1
1.548431971E1,-9.129066010E0,-4.564158783E0,-2.852318573E0,1.059750503E1
1.549426171E1,-9.051078186E0,-4.183799744E0,-2.869083710E0,1.037582951E1
1.550420371E1,-9.107810211E0,-4.028722229E0,-2.859503632E0,1.036144636E1
1.551414571E1,-9.192983093E0,-3.957320709E0,-2.777324524E0,1.038676354E1
1.552408771E1,-9.323062592E0,-3.907474365E0,-2.688409424E0,1.046018151E1
1.553402871E1,-9.416468353E0,-3.882925415E0,-2.549049225E0,1.049974466E1
1.554397071E1,-9.579928436E0,-3.940854950E0,-2.307601318E0,1.061274660E1
1.555391271E1,-9.735904083E0,-3.942052460E0,-2.161654816E0,1.072382196E1
1.556385471E1,-9.918224945E0,-3.815864868E0,-2.232906647E0,1.085900009E1
1.557379671E1,-1.015323624E1,-3.660937042E0,-2.355651398E0,1.104716070E1
1.558373871E1,-1.021670425E1,-3.441643066E0,-2.556833038E0,1.107986227E1
1.559368071E1,-1.016131943E1,-3.269351349E0,-2.651735687E0,1.099876234E1
1.560362171E1,-1.015323624E1,-3.272794189E0,-2.576292572E0,1.097436428E1
1.561356371E1,-1.025442581E1,-3.404669952E0,-2.336042175E0,1.105450674E1
1.562350571E1,-1.037657181E1,-3.431314545E0,-1.959724731E0,1.110349868E1
1.563344771E1,-1.042941193E1,-3.341651001E0,-1.511556702E0,1.105549946E1
1.564338971E1,-1.050141220E1,-3.256029053E0,-1.159039764E0,1.105553059E1
1.565333171E1,-1.058389069E1,-3.184627533E0,-8.613088989E-1,1.108613763E1
1.566327371E1,-1.077519287E1,-3.069816284E0,-6.909631348E-1,1.122523868E1
1.567321571E1,-1.102786743E1,-2.914140015E0,-7.056326294E-1,1.142821025E1
1.568315671E1,-1.094658646E1,-2.849474487E0,-8.286767578E-1,1.134169146E1
1.569309871E1,-1.105750580E1,-3.028502197E0,-1.070124664E0,1.151457454E1
1.570304071E1,-1.117575989E1,-3.341351624E0,-1.286574554E0,1.173531056E1
1.571298271E1,-1.118608841E1,-3.594774628E0,-1.447040863E0,1.183828137E1
1.572292471E1,-1.128772705E1,-3.809577942E0,-1.425335999E0,1.199821857E1
1.573286671E1,-1.143636795E1,-3.940854950E0,-1.330433350E0,1.216926056E1
1.574280871E1,-1.166239792E1,-3.940555573E0,-1.298549652E0,1.237843830E1
1.575274971E1,-1.201566330E1,-3.818858643E0,-1.220262451E0,1.266684200E1
1.576269171E1,-1.265258881E1,-3.628005524E0,-1.253643036E0,1.322202891E1
1.577263371E1,-1.301932617E1,-3.458707581E0,-1.423390045E0,1.354590533E1
1.578257571E1,-1.322170532E1,-3.409310303E0,-1.637594604E0,1.375204001E1
1.579251771E1,-1.316018326E1,-3.218008118E0,-1.667831726E0,1.365018909E1
1.580245971E1,-1.299073563E1,-2.936892700E0,-1.657952271E0,1.342137685E1
1.581240171E1,-1.298115555E1,-2.931803284E0,-1.690434723E0,1.341504526E1
1.582234271E1,-1.302127213E1,-3.212170258E0,-1.569935303E0,1.350319452E1
1.583228471E1,-1.311108536E1,-3.535946960E0,-1.366208954E0,1.364807705E1
1.584222671E1,-1.315000443E1,-3.878434753E0,-1.198407898E0,1.376230555E1
1.585216871E1,-1.300121384E1,-4.008663940E0,-1.072968750E0,1.364742502E1
1.586211071E1,-1.283880157E1,-3.868704987E0,-1.059945831E0,1.345084344E1
1.587205271E1,-1.264809814E1,-3.495830383E0,-1.231489105E0,1.317997656E1
1.588199471E1,-1.242715759E1,-3.009042664E0,-1.492695923E0,1.287310082E1
1.589193571E1,-1.213706085E1,-2.652633820E0,-1.703906708E0,1.253985687E1
1.590187771E1,-1.185100571E1,-2.471211090E0,-1.944905548E0,1.226115321E1
1.591181971E1,-1.156704620E1,-2.522254944E0,-2.114802246E0,1.202625114E1
1.592176171E1,-1.129595993E1,-2.781366119E0,-2.127974854E0,1.182636822E1
1.593170371E1,-1.106573868E1,-3.129392395E0,-2.070045319E0,1.168455206E1
1.594164571E1,-1.084943848E1,-3.511398010E0,-1.998793488E0,1.157736614E1
1.595158771E1,-1.062310913E1,-3.897894287E0,-1.888323212E0,1.147213110E1
1.596152971E1,-1.020966888E1,-4.202061768E0,-1.753902740E0,1.117903559E1
1.597147071E1,-9.742939453E0,-4.482877808E0,-1.631906433E0,1.084823401E1
1.598141271E1,-9.311985626E0,-4.738246765E0,-1.466201019E0,1.055053573E1
1.599135471E1,-8.907826080E0,-4.960235138E0,-1.318009186E0,1.028058589E1
1.600129671E1,-8.684789886E0,-5.163961487E0,-1.198108521E0,1.017484829E1
1.601123871E1,-8.595276031E0,-5.318290558E0,-1.050216064E0,1.016198496E1
1.602118071E1,-8.578211517E0,-5.443130951E0,-9.517208862E-1,1.020387966E1
1.603112271E1,-8.979227600E0,-5.679339752E0,-9.370513916E-1,1.066580956E1
1.604106371E1,-9.453142090E0,-5.881120148E0,-9.039701843E-1,1.116989846E1
1.605100571E1,-9.449100494E0,-5.770949249E0,-8.955876160E-1,1.110816963E1
1.606094771E1,-9.226213989E0,-5.615272980E0,-9.210346985E-1,1.083986255E1
1.607088971E1,-8.930279388E0,-5.545368347E0,-8.578660583E-1,1.054689216E1
1.608083171E1,-8.566386108E0,-5.551804962E0,-7.098239136E-1,1.023275912E1
1.609077371E1,-8.180189209E0,-5.614674225E0,-3.766168213E-1,9.928841945E0
1.610071571E1,-7.839347992E0,-5.714666290E0,5.104385376E-2,9.701308841E0
1.611065671E1,-7.614665222E0,-5.800138550E0,4.141886902E-1,9.581037831E0
1.612059871E1,-7.741002502E0,-5.961053925E0,7.426057434E-1,9.798405326E0
1.613054071E1,-8.281977539E0,-6.248156891E0,8.846603394E-1,1.041216790E1
1.614048271E1,-8.657546539E0,-6.318660278E0,7.327262878E-1,1.074315911E1
1.615042471E1,-8.469687195E0,-6.060746613E0,9.879455566E-2,1.041527777E1
1.616036671E1,-8.081394653E0,-5.814957733E0,-7.521858215E-1,9.984410673E0
1.617030871E1,-7.612569580E0,-5.592969360E0,-1.187630310E0,9.520661092E0
1.618024971E1,-7.034920807E0,-5.351521454E0,-1.289418640E0,8.932608413E0
1.619019171E1,-6.583309937E0,-5.253774719E0,-1.213676147E0,8.509707886E0
1.620013371E1,-6.321654053E0,-5.255121918E0,-8.806187439E-1,8.267714660E0
1.621007571E1,-6.140081635E0,-5.234165497E0,-4.855902100E-1,8.082876269E0
1.622001771E1,-6.235583038E0,-5.277724915E0,-2.933898926E-1,8.174530796E0
1.622995971E1,-6.394253082E0,-5.345833282E0,-2.712359619E-1,8.338943273E0
